aX,aY,aZ,gX,gY,gZ
0.093,0.043,0.906,-27.649,-8.362,5.859
-0.036,0.150,1.042,-96.924,51.208,43.762
0.121,0.298,0.741,23.071,83.252,76.050
0.277,0.296,0.278,218.994,88.623,85.083
0.279,0.422,0.399,100.098,46.265,50.781
0.268,0.157,0.398,44.800,7.629,0.610
0.241,-0.235,0.549,14.038,-20.935,-41.748
0.182,-0.556,0.731,-19.836,-41.199,-56.885
0.217,-0.742,0.882,-4.639,-51.086,-33.386
0.125,-0.723,1.103,12.024,-53.101,8.850
-0.066,-0.534,1.285,42.236,-45.532,57.556
-0.083,-0.339,1.405,62.378,-31.982,97.107
-0.183,-0.258,1.570,59.448,-18.555,121.765
-0.276,-0.219,1.674,105.591,2.747,150.635
0.042,-0.005,1.104,293.152,43.030,193.970
0.059,0.431,0.157,500.793,60.974,227.539
0.099,0.968,0.412,400.574,-3.662,206.970
0.098,0.897,0.738,261.658,-57.739,127.502
0.271,0.644,0.982,149.109,-73.730,46.387
0.365,0.246,0.897,36.011,-56.396,-7.324
0.213,-0.503,0.950,-79.163,-42.358,-48.401
0.190,-0.971,1.109,-114.624,-44.800,-56.091
0.168,-0.747,1.057,-92.651,-36.682,-19.775
0.186,-0.198,1.099,-55.725,-30.090,15.808
0.181,-0.059,1.105,-7.141,-23.865,13.855
0.135,-0.220,1.024,0.366,-9.399,-5.859
0.048,-0.461,0.886,10.986,2.502,-13.916
0.034,-0.488,0.904,29.297,-1.587,-0.793
0.018,-0.425,1.046,46.082,-13.000,21.484
0.047,-0.230,1.267,56.091,-20.020,42.175
0.075,-0.088,1.323,63.538,-12.085,52.429
0.154,0.011,1.184,52.917,5.127,49.133
0.216,0.167,0.953,15.381,18.982,41.443
0.136,0.366,0.894,-31.067,24.902,23.071
0.119,0.162,0.967,-26.611,20.142,-6.714
0.145,-0.072,1.024,-29.480,18.127,-28.015
0.040,-0.171,0.975,-52.612,20.813,-28.687
0.144,-0.434,0.885,-47.974,18.311,-25.879
0.173,-0.707,0.948,-20.325,3.845,-26.733
0.171,-0.727,0.966,7.996,-0.793,-10.437
0.149,-0.599,0.984,26.611,3.479,17.578
0.132,-0.649,1.004,51.331,6.958,32.410
0.178,-0.712,0.875,86.914,14.160,40.955
0.176,-0.618,0.785,87.769,18.677,57.190
0.141,-0.444,0.846,65.369,13.733,70.435
0.185,-0.265,0.912,49.133,11.475,75.623
0.202,0.042,0.912,27.649,14.587,72.632
0.205,0.400,1.010,-12.268,16.479,58.472
0.188,0.547,1.100,-42.725,21.667,22.095
0.143,0.385,1.144,-93.689,33.447,-28.992
0.151,0.087,1.137,-134.949,45.898,-76.782
0.187,-0.263,1.104,-148.865,56.519,-103.149
0.245,-0.605,0.868,-146.118,67.688,-109.070
0.274,-0.741,0.693,-144.470,65.674,-97.595
0.233,-0.900,0.587,-113.586,51.270,-80.566
0.246,-0.877,0.634,-73.242,27.344,-50.537
0.233,-0.757,0.692,-33.997,12.939,-17.090
0.220,-0.606,0.783,3.540,3.479,7.202
0.246,-0.368,0.868,28.198,-2.441,25.757
0.249,-0.055,0.909,31.860,-2.502,30.579
0.233,0.408,0.866,2.319,0.061,21.545
0.213,0.737,0.845,-74.280,-1.770,-5.310
0.067,0.766,0.722,-174.500,-11.780,-60.303
0.129,0.520,0.599,-291.565,-31.860,-125.488
0.309,0.319,0.718,-332.031,-62.805,-173.584
0.270,0.102,1.021,-357.056,-86.365,-197.876
0.140,-0.267,1.128,-324.280,-83.679,-213.013
-0.037,-0.593,1.309,-320.007,-76.355,-201.294
-0.178,-1.053,1.560,-290.283,-61.401,-152.161
-0.085,-1.427,1.475,-125.732,-21.545,-65.491
-0.003,-0.809,1.354,55.176,19.958,57.312
0.059,0.142,1.061,176.758,50.293,150.940
0.065,0.559,0.721,237.427,58.838,161.743
0.088,0.470,0.615,242.432,38.513,121.765
0.083,0.228,0.698,218.323,7.812,79.041
0.230,-0.057,0.680,254.211,-13.306,58.716
0.118,-0.384,0.526,319.763,-28.259,58.289
0.097,-0.261,0.733,289.001,-49.011,76.721
0.256,0.118,1.229,194.275,-69.580,89.844
0.312,0.160,1.255,83.740,-48.218,66.223
0.219,0.017,1.001,-20.386,-8.728,28.748
0.072,-0.031,0.901,-62.317,4.700,4.883
0.102,-0.091,0.879,-40.771,8.118,-5.554
0.168,-0.126,0.933,1.465,11.230,-9.949
0.096,-0.278,0.973,60.486,15.015,-8.667
0.098,-0.194,1.097,108.521,7.263,6.836
0.162,0.119,1.343,133.911,0.977,29.358
0.197,0.107,1.409,115.967,11.841,27.344
0.146,-0.146,1.064,91.431,40.222,9.399
0.200,-0.180,0.722,64.514,57.556,5.737
0.281,-0.025,0.653,33.020,47.485,12.146
0.269,0.192,0.786,-0.854,32.288,13.306
0.267,0.380,0.933,-28.259,25.757,2.380
0.227,0.515,1.045,-47.852,27.039,-13.733
0.160,0.437,1.142,-52.246,32.593,-37.720
0.240,0.156,1.192,-43.823,39.795,-61.951
0.209,-0.166,1.070,-22.888,53.589,-75.317
0.180,-0.302,0.856,-4.639,71.960,-67.261
0.132,-0.363,0.722,9.949,75.684,-45.044
0.217,-0.355,0.527,35.767,58.655,-22.888
0.303,-0.326,0.552,46.509,24.536,-5.432
0.246,-0.429,0.695,31.494,-1.709,-0.671
0.230,-0.678,0.812,25.208,-17.212,0.549
0.240,-0.721,0.886,17.578,-24.231,15.442
0.140,-0.730,0.859,1.282,-22.522,34.119
0.166,-0.648,0.912,9.033,-26.245,50.171
0.063,-0.416,1.034,20.569,-30.579,69.214
0.095,-0.129,1.071,22.400,-25.452,76.904
0.161,0.233,1.059,17.212,-15.747,68.848
0.140,0.421,1.103,-3.479,-8.972,41.077
0.118,0.328,1.190,-10.620,-4.211,3.479
0.154,0.038,1.333,-5.249,1.526,-30.212
0.136,-0.196,1.306,-3.601,18.433,-49.072
0.130,-0.322,1.005,-9.949,41.992,-53.589
0.127,-0.219,0.683,-18.799,49.255,-47.119
0.204,-0.151,0.630,-20.569,32.349,-38.391
0.229,-0.252,0.782,-21.362,9.460,-37.415
0.239,-0.445,0.846,-24.292,0.244,-42.297
0.284,-0.579,0.847,-31.616,-3.113,-39.673

-0.024,-1.884,0.660,-17.944,-31.189,41.138
-0.066,-1.608,0.676,-41.199,-31.128,78.857
-0.128,-1.474,0.695,-56.946,-32.166,101.257
-0.197,-1.412,0.698,-62.622,-33.691,118.103
-0.241,-1.340,0.577,-54.199,-30.884,134.827
-0.277,-1.194,0.446,-36.133,-32.776,152.710
-0.295,-0.986,0.399,-15.015,-42.908,167.358
-0.286,-0.785,0.392,0.793,-55.542,177.246
-0.319,-0.641,0.480,-2.502,-64.331,178.650
-0.282,-0.582,0.660,-0.122,-80.627,178.162
-0.243,-0.331,0.919,4.456,-91.003,188.660
-0.213,-0.039,1.131,-1.587,-88.745,193.787
-0.306,0.266,1.295,-14.526,-77.148,190.735
-0.319,0.666,1.406,-17.578,-63.171,189.209
-0.334,1.143,1.471,-11.414,-51.819,188.416
-0.286,1.617,1.538,-0.671,-44.739,177.185
-0.241,1.832,1.586,-7.446,-37.598,148.560
-0.223,1.792,1.617,-8.728,-29.480,110.107
-0.208,1.788,1.704,-14.282,-22.888,82.153
-0.188,1.919,1.817,-16.846,-16.907,66.528
-0.173,2.069,1.885,-15.259,-7.507,50.842
-0.159,2.101,1.874,-18.860,6.226,26.306
-0.176,2.037,1.723,-18.799,22.827,-1.648
-0.175,2.003,1.528,-14.465,34.851,-27.344
-0.171,1.901,1.463,-15.076,37.598,-54.199
-0.190,1.713,1.381,-17.395,40.955,-83.008
-0.213,1.607,1.277,-16.602,47.119,-104.675
-0.231,1.537,1.198,-11.536,51.270,-123.291
-0.263,1.430,1.144,-5.371,54.138,-144.409
-0.313,1.267,1.106,0.183,57.007,-166.992
-0.365,1.068,1.032,6.287,61.707,-187.744
-0.414,0.836,0.879,10.986,69.641,-206.421
-0.468,0.562,0.609,12.329,78.186,-223.328
-0.528,0.296,0.398,14.221,77.881,-237.305
-0.540,-0.007,0.304,23.132,65.979,-249.634
-0.524,-0.397,0.469,31.921,45.166,-262.573
-0.454,-0.990,0.693,35.278,31.860,-269.836
-0.419,-1.312,0.581,32.043,40.344,-252.502
-0.395,-1.689,0.379,23.376,47.791,-233.643
-0.343,-2.055,0.359,12.146,35.217,-212.280
-0.249,-2.180,0.431,3.052,18.066,-178.345
-0.231,-2.225,0.444,0.244,9.155,-143.677
-0.230,-2.328,0.462,-1.892,1.404,-117.310
-0.214,-2.433,0.517,1.221,-7.996,-89.233
-0.187,-2.537,0.598,1.770,-16.602,-59.875
-0.161,-2.529,0.693,-0.732,-22.034,-27.222
-0.149,-2.473,0.754,-5.310,-23.193,4.089
-0.143,-2.428,0.731,-10.925,-20.264,31.860
-0.142,-2.364,0.678,-16.357,-18.005,58.716
-0.168,-2.278,0.639,-19.531,-19.714,84.290
-0.210,-2.160,0.632,-20.996,-24.658,108.887
-0.212,-1.986,0.565,-20.203,-29.175,132.507
-0.212,-1.731,0.561,-13.672,-33.997,153.442
-0.235,-1.577,0.554,-8.911,-35.461,168.213
-0.257,-1.580,0.432,-7.141,-36.255,173.584
-0.543,-1.547,0.632,-13.245,-41.809,180.908
-0.486,-1.368,0.863,-3.601,-52.795,206.482
-0.535,-1.013,0.880,5.615,-45.227,237.854
-0.615,-0.553,0.824,0.244,-34.668,260.681
-0.752,-0.080,0.984,-11.902,-40.161,277.832
-0.776,0.536,1.241,-24.414,-46.814,290.283
-0.822,1.312,1.184,-27.527,-34.729,295.654
-0.813,2.105,1.121,-20.752,-28.320,290.222
-0.606,2.604,1.319,-7.874,-44.800,261.047
-0.468,2.614,1.637,-3.113,-57.800,205.200
-0.320,2.294,1.855,-7.385,-52.795,145.691
-0.261,2.151,1.849,-14.587,-30.151,109.558
-0.298,2.298,1.699,-17.944,-7.263,92.468
-0.290,2.546,1.712,-18.433,-0.488,75.134
-0.290,2.780,1.735,-19.226,3.967,50.415
-0.297,2.848,1.659,-16.541,16.357,14.099
-0.304,2.771,1.626,-9.827,26.123,-28.015
-0.282,2.533,1.630,-1.404,33.813,-72.083
-0.300,2.179,1.540,5.554,46.265,-113.220
-0.303,1.788,1.332,12.207,62.256,-145.813
-0.299,1.528,1.087,19.287,74.219,-166.870
-0.333,1.352,0.838,24.841,82.947,-183.716
-0.375,1.137,0.642,26.062,85.754,-204.773
-0.405,0.956,0.540,28.381,81.665,-226.196
-0.403,0.793,0.502,29.602,75.012,-246.277
-0.480,0.444,0.426,12.634,71.228,-272.339
-0.521,-0.014,0.317,-6.653,67.871,-295.776
-0.586,-0.504,0.330,-24.109,54.077,-308.044
-0.608,-0.984,0.504,-33.569,33.630,-308.960
-0.524,-1.389,0.763,-32.898,14.832,-295.471
-0.473,-1.723,0.888,-18.372,9.644,-272.095
-0.427,-2.023,0.822,-0.488,14.343,-242.126
-0.379,-2.152,0.631,16.357,20.325,-204.224
-0.350,-1.963,0.162,32.837,20.325,-165.161
-0.331,-2.511,0.561,34.729,-7.568,-145.081
-0.249,-2.428,0.611,44.739,-13.977,-94.604
-0.268,-2.295,0.369,53.833,-1.221,-48.279
-0.142,-2.386,0.312,52.063,-10.010,-30.151
0.037,-2.408,0.321,33.875,-27.466,-13.306
-0.079,-2.517,0.395,1.282,-39.795,2.380
-0.129,-2.763,0.673,-32.532,-56.030,14.343
-0.173,-2.773,0.841,-58.044,-57.068,44.189
-0.307,-2.555,0.727,-72.754,-43.396,88.806
-0.398,-2.333,0.672,-75.012,-40.405,126.709
-0.419,-2.059,0.736,-67.261,-47.668,158.936
-0.546,-1.868,0.671,-59.082,-48.279,185.730
-0.593,-1.528,0.654,-54.626,-45.654,205.933
-0.589,-1.084,0.809,-45.898,-52.185,231.812
-0.614,-0.791,0.930,-27.161,-47.180,242.126
-0.674,-0.482,1.079,-0.488,-42.786,246.033
-0.652,0.079,1.215,20.081,-36.560,256.836
-0.645,0.478,1.104,40.955,-21.179,253.601
-0.593,0.646,0.825,42.969,-5.798,235.901
-0.540,0.748,0.598,28.931,-7.568,217.773
-0.468,1.024,0.679,4.639,-28.564,210.693
-0.379,1.305,1.036,-21.057,-55.908,201.416
-0.346,1.374,1.441,-49.500,-68.420,180.786
-0.349,1.532,1.687,-65.918,-61.096,163.513
-0.371,1.988,1.693,-68.481,-40.771,160.767
-0.345,2.507,1.708,-63.171,-25.757,151.917
-0.336,2.822,1.813,-53.040,-18.188,123.291
-0.300,2.967,1.856,-34.851,-6.836,83.984
-0.236,2.919,1.703,-13.550,11.658,41.321
-0.201,2.629,1.439,-0.305,28.992,-3.662

-0.175,2.108,1.301,15.869,27.283,-65.674
-0.142,1.965,1.321,19.348,24.414,-84.717
-0.142,1.816,1.192,20.691,31.677,-103.760
-0.189,1.599,1.042,16.296,38.879,-125.366
-0.245,1.320,0.954,13.184,42.114,-146.362
-0.287,1.025,0.835,15.259,44.617,-163.391
-0.317,0.849,0.742,18.921,43.518,-171.692
-0.334,0.629,0.751,24.536,36.438,-179.382
-0.394,0.399,0.667,34.302,35.889,-191.467
-0.449,0.124,0.523,48.096,37.781,-201.660
-0.471,-0.237,0.530,56.396,29.053,-212.646
-0.471,-0.619,0.653,58.777,14.038,-218.079
-0.428,-0.932,0.742,54.993,6.775,-213.013
-0.343,-1.113,0.770,41.931,8.606,-199.341
-0.219,-1.154,0.578,16.235,15.198,-186.218
-0.328,-1.545,0.762,-18.921,5.737,-186.768
-0.201,-1.757,0.964,-43.884,-3.967,-171.448
-0.229,-1.697,0.709,-51.636,18.372,-136.658
-0.232,-2.049,0.409,-67.871,22.583,-125.244
-0.205,-2.375,0.364,-70.190,5.432,-109.558
-0.177,-2.376,0.446,-63.965,-20.203,-74.585
-0.067,-2.322,0.688,-45.410,-41.443,-44.678
-0.076,-2.532,0.658,-22.705,-40.710,-26.123
-0.119,-2.659,0.648,-4.578,-40.710,-6.592
-0.117,-2.516,0.849,1.160,-49.255,35.767
-0.188,-2.504,0.942,3.296,-48.645,66.711
-0.231,-2.391,1.003,3.479,-45.471,92.957
-0.253,-2.111,1.096,2.686,-41.504,128.113
-0.320,-1.854,0.997,-1.953,-28.442,155.090
-0.397,-1.571,0.856,-7.874,-16.785,174.072
-0.430,-1.309,0.783,-12.085,-13.855,188.599
-0.432,-1.101,0.768,-18.616,-13.550,197.754
-0.437,-0.946,0.738,-24.048,-11.414,201.599
-0.427,-0.824,0.642,-27.588,-6.592,205.139
-0.454,-0.713,0.548,-33.203,-4.639,210.144
-0.556,-0.506,0.522,-37.415,-8.545,220.764
-0.635,-0.295,0.556,-40.405,-20.752,236.938
-0.716,0.485,0.786,-41.504,-36.499,257.874
-0.728,1.137,0.970,-39.063,-42.236,269.226
-0.766,1.500,1.073,-37.415,-39.917,245.972
-0.782,1.926,1.255,-24.719,-40.039,224.304
-0.758,2.292,1.362,-10.742,-38.513,201.477
-0.639,2.468,1.504,0.305,-35.828,167.908
-0.553,2.582,1.582,4.883,-28.931,133.118
-0.517,2.596,1.495,1.038,-12.634,96.863
-0.467,2.574,1.446,-6.226,-2.014,62.073
-0.426,2.464,1.450,-12.939,2.441,28.931
-0.394,2.259,1.459,-19.531,6.653,-2.441
-0.368,2.119,1.448,-26.428,12.146,-28.015
-0.352,2.061,1.354,-25.940,18.860,-44.739
-0.352,1.943,1.284,-20.508,23.071,-63.293
-0.355,1.768,1.205,-10.925,24.902,-84.045
-0.356,1.623,1.098,5.432,28.870,-101.379
-0.362,1.405,1.009,21.362,31.250,-118.652
-0.361,1.180,0.960,34.119,32.349,-134.277
-0.373,0.993,0.908,46.082,36.377,-145.447
-0.369,0.782,0.807,56.763,41.199,-155.518
-0.378,0.533,0.661,60.669,43.518,-166.870
-0.421,0.260,0.543,56.519,41.077,-177.185
-0.420,0.021,0.528,46.448,29.541,-184.631
-0.427,-0.183,0.627,36.377,13.794,-189.758
-0.414,-0.413,0.763,22.705,1.770,-193.237
-0.373,-0.700,0.897,7.874,-4.395,-194.153
-0.313,-0.947,0.969,-2.686,-4.395,-188.110
-0.196,-1.044,0.946,-6.531,3.662,-175.781
-0.251,-1.120,0.502,-2.869,12.878,-169.189
-0.135,-1.628,1.087,-5.127,-5.249,-168.152
-0.146,-1.429,0.588,15.381,23.804,-133.667
-0.181,-1.694,0.424,28.870,27.527,-118.164
-0.170,-2.059,0.523,45.410,6.165,-108.398
-0.090,-2.140,0.600,55.603,-5.981,-79.651
-0.040,-2.128,0.523,58.289,-8.972,-51.025
0.046,-2.143,0.644,49.683,-19.714,-32.593
0.071,-2.172,0.730,33.508,-22.644,-16.907
0.051,-2.311,0.715,11.475,-20.874,-6.592
0.020,-2.332,0.724,-8.179,-21.240,9.521
-0.022,-2.209,0.741,-20.874,-23.804,34.607
-0.067,-2.082,0.774,-28.320,-24.475,56.763
-0.110,-1.988,0.776,-31.250,-22.949,76.050
-0.192,-1.809,0.750,-30.457,-19.653,97.046
-0.240,-1.569,0.758,-26.978,-17.700,118.164
-0.292,-1.374,0.786,-23.132,-15.076,134.399
-0.371,-1.156,0.851,-18.738,-10.803,148.315
-0.414,-0.827,0.888,-11.536,-4.028,162.659
-0.439,-0.530,0.844,-2.014,3.174,170.898
-0.440,-0.366,0.768,4.761,7.629,170.837
-0.452,-0.279,0.753,3.906,4.883,170.105
-0.475,-0.109,0.796,-8.057,-0.977,174.744
-0.443,0.120,0.775,-23.804,-4.456,180.115
-0.490,0.361,0.759,-43.762,-7.996,182.373
-0.559,0.668,0.939,-60.608,-21.240,186.462
-0.588,1.143,1.237,-65.247,-35.645,191.895
-0.674,1.872,1.496,-58.655,-39.185,194.031
-0.704,2.644,1.739,-41.504,-36.316,181.946
-0.613,3.097,1.857,-15.076,-26.123,148.315
-0.507,3.009,1.807,3.723,-7.996,94.360
-0.430,2.631,1.593,12.939,9.949,41.565
-0.385,2.322,1.502,14.343,17.883,6.775
-0.317,2.216,1.563,11.597,18.555,-12.146
-0.281,2.162,1.517,4.700,25.940,-29.907
-0.280,1.932,1.360,-2.502,36.987,-54.504
-0.246,1.700,1.214,-7.446,41.870,-76.477
-0.228,1.547,1.066,-11.230,43.823,-91.064
-0.219,1.331,0.938,-7.568,45.105,-107.605
-0.238,1.002,0.790,0.305,44.739,-125.305
-0.240,0.778,0.673,9.766,41.992,-133.240
-0.216,0.705,0.604,24.170,37.354,-133.118
-0.243,0.501,0.503,37.842,34.424,-138.062
-0.237,0.264,0.403,47.241,29.602,-142.639
-0.261,0.158,0.349,55.969,19.409,-138.000
-0.288,0.059,0.405,63.293,4.761,-132.996
-0.289,-0.159,0.500,68.604,-9.277,-135.925
-0.258,-0.349,0.733,64.880,-22.278,-136.902
-0.235,-0.582,0.883,50.110,-25.757,-137.329
-0.187,-0.705,0.845,28.992,-20.813,-139.038
-0.183,-1.106,1.242,2.563,-18.494,-139.587
-0.158,-1.075,1.084,-19.592,3.967,-123.779
-0.140,-1.205,0.741,-33.936,28.687,-113.647
-0.091,-1.585,0.713,-36.011,24.292,-115.845

-0.024,-1.952,0.580,-8.545,18.372,-80.688
-0.002,-2.091,0.276,8.057,18.005,-61.157
0.029,-2.149,0.346,22.522,-2.625,-40.405
0.043,-2.266,0.600,31.555,-27.527,-20.996
0.061,-2.360,0.623,30.457,-33.752,-1.770
0.080,-2.271,0.705,23.621,-38.269,22.400
0.072,-2.200,0.847,7.324,-44.617,41.016
0.015,-2.064,0.883,-11.597,-42.297,58.228
-0.049,-1.856,0.948,-29.175,-38.025,75.928
-0.111,-1.664,1.038,-40.649,-33.508,88.623
-0.178,-1.473,1.065,-44.189,-23.865,99.365
-0.207,-1.299,0.996,-41.199,-10.864,110.107
-0.228,-1.268,0.890,-37.903,0.000,116.211
-0.239,-1.291,0.848,-35.645,6.287,122.192
-0.276,-1.271,0.770,-29.236,10.742,134.766
-0.339,-1.234,0.464,-22.766,16.724,150.757
-0.400,-0.972,0.187,-20.447,11.353,174.133
-0.467,-0.596,0.256,-23.437,-11.658,196.411
-0.547,-0.226,0.543,-30.151,-38.086,212.769
-0.632,0.263,0.899,-33.875,-53.528,224.915
-0.741,0.841,1.218,-32.654,-56.763,228.271
-0.823,1.581,1.426,-23.437,-50.659,225.769
-0.770,2.231,1.406,-10.864,-36.316,211.487
-0.667,2.387,1.290,-5.920,-21.240,170.532
-0.592,2.203,1.331,-7.385,-16.968,120.850
-0.549,2.074,1.461,-9.583,-15.808,86.060
-0.540,2.097,1.565,-11.414,-10.803,65.674
-0.524,2.171,1.568,-12.390,-1.404,48.645
-0.519,2.189,1.508,-13.611,7.568,29.785
-0.519,2.159,1.404,-16.174,13.489,9.216
-0.485,2.101,1.384,-15.991,13.489,-11.597
-0.439,2.034,1.553,-16.174,10.010,-31.921
-0.414,1.891,1.480,-13.062,18.677,-53.162
-0.403,1.753,1.237,-2.380,32.104,-71.960
-0.423,1.514,1.074,7.812,36.621,-92.896
-0.459,1.275,1.041,15.503,35.400,-111.572
-0.443,1.085,1.034,22.156,35.645,-123.169
-0.422,0.941,0.948,24.902,40.100,-130.737
-0.414,0.785,0.770,22.705,45.471,-139.771
-0.406,0.623,0.667,18.921,44.006,-150.513
-0.409,0.454,0.670,16.174,37.170,-161.377
-0.418,0.193,0.646,13.489,31.921,-173.401
-0.403,-0.082,0.618,16.602,29.053,-182.739
-0.395,-0.259,0.477,22.644,23.193,-186.401
-0.445,-0.760,1.042,24.048,0.000,-196.106
-0.329,-0.974,0.905,25.146,8.972,-187.256
-0.326,-1.026,0.547,32.654,31.189,-162.048
-0.247,-1.334,0.673,38.574,13.062,-154.602
-0.155,-1.399,0.898,42.847,-0.366,-136.475
-0.082,-1.347,0.783,43.030,8.423,-114.563
-0.030,-1.448,0.663,38.147,13.794,-108.093
0.007,-1.575,0.701,22.888,7.996,-104.553
0.004,-1.786,0.781,0.793,3.052,-99.854
0.035,-1.969,0.792,-17.212,2.747,-93.018
0.047,-2.105,0.781,-31.921,3.662,-82.581
0.068,-2.262,0.845,-42.236,0.671,-70.801
0.087,-2.395,0.862,-46.509,0.183,-52.856
0.096,-2.515,0.805,-44.006,1.831,-29.114
0.097,-2.509,0.820,-35.034,0.061,1.282
0.073,-2.417,0.818,-22.766,-1.831,34.668
0.009,-2.267,0.751,-13.000,-1.587,67.688
-0.073,-2.015,0.684,-6.409,-2.319,100.464
-0.148,-1.729,0.725,-5.554,-6.470,126.587
-0.228,-1.486,0.765,-9.338,-8.484,145.020
-0.289,-1.138,0.784,-15.320,-6.409,161.072
-0.351,-0.837,0.809,-21.240,-3.235,169.189
-0.389,-0.654,0.789,-24.414,1.343,168.640
-0.377,-0.538,0.704,-24.414,6.897,166.199
-0.386,-0.468,0.542,-26.245,10.559,165.771
-0.444,-0.422,0.476,-33.386,6.775,167.969
-0.504,-0.202,0.545,-37.231,-4.456,177.734
-0.598,0.214,0.702,-34.668,-17.578,194.153
-0.621,0.748,0.898,-25.818,-28.076,207.947
-0.648,1.220,1.014,-11.719,-32.593,209.106
-0.709,1.671,1.259,0.854,-37.476,198.181
-0.679,2.202,1.507,17.090,-41.199,184.570
-0.613,2.394,1.599,28.503,-32.715,152.100
-0.530,2.245,1.626,25.208,-20.813,108.093
-0.445,1.984,1.533,14.221,-7.690,72.205
-0.415,1.850,1.404,-4.028,3.296,49.683
-0.395,1.970,1.421,-20.996,5.493,38.086
-0.370,2.186,1.453,-35.828,6.775,26.062
-0.341,2.347,1.344,-45.837,11.169,6.470
-0.297,2.305,1.354,-52.917,10.315,-21.240
-0.292,2.224,1.337,-52.795,11.047,-48.706
-0.281,2.025,1.370,-39.490,15.320,-73.730
-0.267,1.685,1.209,-19.531,25.574,-96.741
-0.274,1.382,0.947,3.357,36.621,-110.596
-0.283,1.190,0.748,25.391,37.842,-116.272
-0.290,1.053,0.620,42.236,33.752,-118.347
-0.285,0.938,0.586,55.481,26.245,-121.704
-0.306,0.808,0.572,67.749,19.958,-127.319
-0.307,0.624,0.545,76.965,15.930,-134.277
-0.323,0.380,0.513,78.613,12.268,-142.883
-0.321,0.154,0.506,75.745,7.202,-148.743
-0.295,-0.074,0.560,67.200,1.160,-152.893
-0.298,-0.361,0.661,50.476,-3.052,-158.569
-0.296,-0.643,0.711,31.677,-3.235,-162.231
-0.299,-0.846,0.652,15.747,-0.305,-160.034
-0.240,-0.950,0.604,2.808,0.488,-153.931
-0.261,-0.936,0.134,-1.404,-1.953,-149.414
-0.130,-1.549,1.059,-9.033,-32.227,-151.428
-0.161,-1.233,0.572,-2.197,-8.362,-120.667
-0.166,-1.545,0.562,8.118,-7.629,-111.389
-0.143,-1.831,0.946,21.851,-35.645,-105.042
-0.137,-1.845,1.067,33.447,-33.386,-80.444
-0.150,-1.909,0.934,40.466,-22.034,-61.646
-0.102,-2.073,1.158,39.551,-25.452,-52.429
-0.099,-2.218,1.188,31.433,-18.860,-42.114
-0.080,-2.386,1.193,20.142,-10.132,-29.968
-0.059,-2.528,1.265,5.188,-5.554,-13.184
-0.032,-2.559,1.224,-10.376,0.793,8.179
-0.046,-2.489,1.112,-28.687,8.728,32.288
-0.058,-2.277,1.033,-43.762,12.756,59.998
-0.090,-1.999,0.882,-51.758,16.846,86.060
-0.153,-1.839,0.640,-54.932,21.912,106.445
-0.225,-1.630,0.568,-51.758,15.991,126.099
-0.289,-1.445,0.575,-41.199,8.057,145.569
-0.359,-1.241,0.607,-27.100,2.625,165.161

-0.613,1.404,1.083,-28.931,-18.311,172.424
-0.597,1.865,1.260,-38.086,-25.513,161.011
-0.584,2.209,1.486,-45.288,-27.222,136.353
-0.549,2.354,1.641,-51.331,-22.217,105.530
-0.507,2.371,1.590,-53.345,-7.751,73.792
-0.454,2.380,1.504,-53.955,3.052,47.974
-0.426,2.412,1.486,-51.575,8.362,25.452
-0.364,2.317,1.470,-45.166,12.756,1.831
-0.321,2.190,1.461,-34.424,14.709,-19.714
-0.280,2.145,1.202,-22.339,26.428,-34.851
-0.249,1.946,1.056,-11.719,28.442,-52.734
-0.249,1.839,1.084,-1.892,22.400,-70.984
-0.239,1.635,1.046,10.315,23.560,-91.309
-0.274,1.394,0.878,20.142,33.020,-111.328
-0.294,1.149,0.756,27.832,36.133,-124.817
-0.300,1.012,0.721,34.424,32.471,-132.385
-0.316,0.904,0.711,39.063,29.053,-138.428
-0.376,0.658,0.624,40.649,29.053,-149.475
-0.359,0.401,0.514,40.833,26.917,-158.569
-0.370,0.286,0.476,39.124,17.883,-161.926
-0.390,0.164,0.569,32.837,5.188,-167.358
-0.396,-0.088,0.714,20.142,-5.066,-178.589
-0.393,-0.408,0.844,3.479,-9.460,-189.331
-0.331,-0.687,0.994,-10.803,-11.169,-193.542
-0.298,-0.953,1.110,-24.109,-6.409,-192.383
-0.259,-1.168,0.904,-32.410,4.822,-189.087
-0.315,-1.632,1.183,-31.738,-0.916,-185.974
-0.187,-1.569,1.058,-32.654,7.568,-159.058
-0.193,-1.497,0.425,-5.615,44.373,-129.395
-0.191,-2.117,0.692,13.062,11.292,-136.047
-0.135,-2.256,0.998,24.597,-9.949,-108.032
-0.104,-2.210,0.635,31.494,6.592,-69.824
-0.048,-2.341,0.714,32.654,1.160,-50.537
0.032,-2.429,0.911,26.062,-13.062,-31.311
0.078,-2.384,0.836,14.221,-9.460,-4.456
0.081,-2.325,0.765,2.930,-7.690,19.470
0.070,-2.248,0.885,-7.141,-14.954,41.199
0.037,-2.059,0.830,-10.071,-14.221,63.049
-0.002,-1.932,0.798,-13.733,-12.939,80.078
-0.076,-1.687,0.795,-19.653,-13.184,101.929
-0.141,-1.555,0.755,-23.010,-11.353,117.859
-0.200,-1.373,0.692,-22.827,-8.545,133.911
-0.264,-1.159,0.675,-20.020,-7.812,148.560
-0.326,-0.992,0.646,-17.090,-6.714,159.058
-0.386,-0.806,0.591,-12.207,-5.310,167.786
-0.426,-0.580,0.538,-4.944,-6.226,176.697
-0.460,-0.448,0.469,-1.343,-9.705,181.396
-0.501,-0.395,0.393,-1.099,-16.541,184.204
-0.516,-0.261,0.375,-2.930,-27.893,190.857
-0.524,0.017,0.534,-4.272,-41.199,201.660
-0.557,0.442,0.736,-3.052,-53.345,210.449
-0.629,0.879,0.926,-2.258,-58.899,210.449
-0.729,1.474,1.366,-5.676,-68.604,205.322
-0.737,2.210,1.747,-3.479,-69.519,194.336
-0.679,2.517,1.860,0.305,-51.086,157.959
-0.618,2.373,1.908,-2.930,-30.151,106.689
-0.573,2.095,1.896,-9.277,-12.085,66.528
-0.540,2.110,1.847,-15.930,1.526,46.021
-0.514,2.274,1.725,-21.057,12.573,34.058
-0.516,2.405,1.675,-27.344,16.968,15.686
-0.478,2.460,1.752,-32.715,14.709,-6.104
-0.471,2.345,1.772,-30.518,19.714,-31.677
-0.448,2.072,1.688,-14.282,26.917,-56.641
-0.406,1.863,1.472,5.310,37.109,-73.669
-0.383,1.641,1.187,24.109,45.532,-88.928
-0.378,1.419,0.944,39.978,47.546,-103.699
-0.387,1.218,0.926,53.833,42.053,-116.394
-0.378,1.123,0.968,67.078,39.795,-123.535
-0.396,1.014,0.873,78.674,46.448,-132.385
-0.400,0.812,0.719,83.435,52.979,-146.118
-0.398,0.671,0.604,76.782,54.993,-158.203
-0.400,0.518,0.576,60.364,53.040,-171.204
-0.422,0.331,0.559,41.809,49.744,-185.791
-0.420,0.076,0.432,25.024,49.988,-200.134
-0.412,-0.200,0.285,10.864,47.791,-209.900
-0.380,-0.517,0.339,5.188,34.851,-216.248
-0.336,-0.864,0.448,12.085,20.935,-217.224
-0.254,-1.140,0.421,27.466,17.578,-208.679
-0.266,-1.385,-0.105,44.189,17.029,-197.266
-0.166,-2.110,1.122,43.030,-17.334,-181.213
-0.192,-1.471,0.262,52.979,18.921,-127.441
-0.229,-1.900,0.166,67.810,8.728,-128.967
-0.227,-2.151,0.709,64.758,-34.241,-124.329
-0.159,-2.133,1.043,41.992,-33.325,-97.961
-0.185,-2.226,0.682,4.028,3.174,-81.360
-0.094,-2.419,0.809,-30.212,2.136,-74.463
-0.072,-2.600,0.952,-60.669,-1.831,-61.584
-0.057,-2.753,0.811,-74.524,6.958,-38.452
-0.067,-2.851,0.673,-70.557,10.742,-4.944
-0.049,-2.849,0.667,-55.298,4.639,38.330
-0.077,-2.461,0.472,-31.616,-1.038,84.839
-0.128,-2.417,0.595,-7.874,-18.616,109.070
-0.238,-2.219,0.784,-2.319,-31.799,137.390
-0.328,-1.864,0.718,-2.502,-27.344,172.058
-0.432,-1.487,0.579,-6.348,-23.254,196.289
-0.516,-1.180,0.602,-18.677,-28.259,206.787
-0.593,-0.816,0.723,-37.048,-34.119,212.280
-0.660,-0.460,0.822,-54.077,-33.142,214.111
-0.682,-0.153,0.959,-64.148,-29.175,210.449
-0.649,0.042,1.002,-65.857,-20.447,204.407
-0.583,0.110,0.950,-63.049,-8.423,197.571
-0.613,0.180,0.851,-55.786,-2.747,194.885
-0.620,0.550,1.028,-47.668,-3.479,202.026
-0.580,1.018,1.047,-37.109,-2.502,207.336
-0.627,1.375,0.953,-30.945,0.610,198.975
-0.618,1.754,1.136,-28.381,-9.583,187.683
-0.557,1.906,1.245,-23.682,-17.517,166.687
-0.488,1.957,1.317,-22.888,-16.968,138.184
-0.436,1.922,1.357,-23.682,-14.099,114.685
-0.432,1.915,1.304,-23.254,-7.385,95.703
-0.407,2.208,1.328,-21.912,-5.493,86.243
-0.382,2.540,1.397,-24.475,-5.371,72.021
-0.368,2.680,1.415,-31.860,-1.221,41.504
-0.363,2.679,1.293,-38.147,7.324,5.554
-0.328,2.667,1.194,-40.222,12.024,-28.198
-0.305,2.481,1.204,-34.119,10.620,-67.566
-0.287,2.186,1.189,-21.301,13.306,-105.835
-0.287,1.817,0.991,-6.348,24.597,-134.521
-0.291,1.412,0.810,6.531,33.020,-155.701

-0.338,-1.561,0.533,-11.841,21.912,-118.835
-0.305,-2.120,0.452,8.362,9.949,-125.000
-0.306,-2.651,1.041,18.738,-38.086,-122.070
-0.204,-2.764,1.200,23.132,-34.607,-77.271
-0.198,-2.732,0.844,22.034,-8.179,-31.067
-0.173,-2.813,1.157,15.991,-16.418,-0.427
-0.162,-2.737,1.395,4.028,-20.325,32.959
-0.186,-2.506,1.159,-11.780,2.197,70.129
-0.192,-2.119,0.907,-22.705,10.254,95.764
-0.202,-2.130,1.155,-31.311,-2.441,103.882
-0.291,-1.848,1.130,-42.297,4.150,128.845
-0.339,-1.554,0.920,-41.443,19.897,151.672
-0.404,-1.282,0.808,-37.720,23.743,165.771
-0.457,-1.029,0.782,-34.790,22.095,174.316
-0.466,-0.807,0.628,-31.982,24.780,181.091
-0.481,-0.633,0.436,-28.503,26.184,186.523
-0.491,-0.516,0.431,-22.400,15.137,190.918
-0.491,-0.387,0.492,-14.221,2.136,198.486
-0.489,-0.100,0.535,-6.348,-5.737,211.060
-0.506,0.238,0.592,0.427,-13.794,221.619
-0.507,0.601,0.913,-0.549,-24.597,224.915
-0.562,0.982,0.997,-6.775,-22.095,220.886
-0.581,1.458,1.119,-11.902,-18.677,213.501
-0.564,2.076,1.263,-14.832,-19.897,204.407
-0.515,2.454,1.215,-14.282,-12.573,174.072
-0.490,2.665,1.327,-11.414,-12.512,133.545
-0.410,2.481,1.408,-4.089,-12.085,91.980
-0.336,2.341,1.367,1.099,-3.174,57.556
-0.304,2.021,1.381,5.371,2.380,30.945
-0.289,1.998,1.428,9.888,5.066,15.808
-0.265,2.134,1.386,14.709,11.536,8.606
-0.244,2.132,1.315,17.944,17.578,-8.118
-0.218,2.070,1.197,23.560,21.729,-28.931
-0.205,2.007,1.096,32.410,22.766,-50.293
-0.211,1.839,1.078,38.086,21.362,-75.195
-0.222,1.619,1.025,40.405,23.499,-98.877
-0.241,1.425,0.947,39.795,27.527,-117.310
-0.260,1.265,0.864,34.607,31.067,-132.202
-0.310,1.156,0.756,26.733,34.241,-145.386
-0.357,1.031,0.658,22.949,33.630,-158.752
-0.391,0.807,0.605,24.475,27.954,-174.866
-0.407,0.457,0.576,30.518,21.118,-189.636
-0.409,0.085,0.531,37.842,14.893,-197.510
-0.370,-0.228,0.547,45.471,6.592,-196.716
-0.321,-0.505,0.583,51.208,-0.793,-190.491
-0.296,-0.733,0.592,55.237,-3.296,-182.129
-0.289,-0.914,0.608,57.373,-5.310,-171.875
-0.294,-1.060,0.585,54.199,-7.019,-161.072
-0.286,-1.155,0.623,46.570,-10.559,-149.719
-0.296,-1.187,0.824,37.537,-16.479,-139.221
-0.241,-1.114,0.473,29.846,-12.512,-135.254
-0.252,-2.020,1.472,14.343,-25.391,-138.000
-0.253,-1.224,0.910,2.930,-2.686,-99.121
-0.306,-1.658,0.762,7.690,15.259,-111.267
-0.333,-2.119,1.042,3.296,-8.728,-121.338
-0.253,-2.186,1.214,4.822,-10.803,-93.872
-0.203,-2.238,1.018,-1.221,7.446,-64.453
-0.180,-2.401,1.036,-3.784,9.216,-40.955
-0.093,-2.488,1.150,-8.240,3.906,-13.733
-0.079,-2.437,0.918,-17.151,16.602,19.348
-0.073,-2.237,0.839,-26.123,18.555,52.368
-0.121,-1.970,0.691,-30.579,10.803,75.134
-0.141,-1.963,0.849,-37.048,-2.014,86.060
-0.191,-1.557,0.783,-45.654,-0.061,115.906
-0.215,-1.362,0.614,-48.340,5.432,131.592
-0.267,-1.266,0.613,-50.659,1.160,138.123
-0.307,-1.129,0.599,-49.622,-1.404,148.682
-0.356,-0.905,0.534,-44.128,-0.366,160.950
-0.392,-0.724,0.530,-36.194,-1.770,168.884
-0.409,-0.615,0.579,-27.588,-5.310,173.035
-0.415,-0.474,0.541,-18.433,-5.615,179.138
-0.414,-0.344,0.467,-12.146,-6.897,185.608
-0.388,-0.150,0.567,-9.338,-14.038,191.956
-0.401,0.046,0.562,-12.573,-18.066,196.167
-0.463,0.222,0.489,-22.278,-20.447,195.312
-0.491,0.665,0.771,-32.471,-36.011,199.036
-0.573,1.254,1.139,-40.466,-49.683,199.524
-0.577,1.920,1.427,-35.339,-50.781,189.941
-0.527,2.474,1.705,-20.203,-46.997,164.917
-0.467,2.387,1.754,-9.216,-31.311,118.164
-0.432,2.024,1.585,-5.371,-10.742,71.960
-0.376,1.976,1.609,-5.859,-3.662,51.758
-0.350,2.050,1.751,-10.864,-2.197,39.368
-0.340,2.197,1.740,-16.052,6.836,26.184
-0.338,2.249,1.599,-20.691,18.005,8.240
-0.310,2.192,1.421,-25.024,25.391,-14.221
-0.285,2.096,1.278,-26.245,27.283,-37.903
-0.278,1.981,1.183,-22.339,25.879,-60.242
-0.245,1.791,1.147,-10.742,26.062,-83.313
-0.248,1.481,0.990,2.319,32.471,-106.079
-0.234,1.229,0.791,16.418,38.696,-119.568
-0.239,1.045,0.693,29.602,38.025,-125.977
-0.225,0.942,0.620,40.222,34.546,-129.639
-0.221,0.885,0.510,49.927,32.227,-133.301
-0.251,0.681,0.401,58.167,27.771,-143.921
-0.279,0.468,0.413,63.416,17.517,-154.968
-0.293,0.261,0.479,66.711,6.592,-161.743
-0.301,0.003,0.538,63.599,-0.061,-169.800
-0.345,-0.250,0.609,54.932,-2.869,-175.781
-0.365,-0.519,0.681,46.265,-4.578,-179.565
-0.376,-0.817,0.760,38.391,-5.005,-180.115
-0.375,-1.044,0.790,32.471,-3.113,-174.927
-0.337,-1.180,0.756,29.846,1.099,-165.039
-0.289,-1.295,0.423,29.663,6.165,-158.081
-0.218,-2.234,1.324,17.944,-10.681,-153.259
-0.212,-1.369,0.593,15.808,21.179,-102.722
-0.199,-1.868,0.494,33.264,21.362,-110.901
-0.247,-2.399,0.886,31.799,-13.611,-116.943
-0.120,-2.330,1.043,32.715,-18.005,-79.712
-0.106,-2.341,0.911,23.254,0.916,-47.180
-0.085,-2.471,0.855,8.423,4.272,-25.330
-0.067,-2.515,0.908,-10.437,2.136,-1.038
-0.075,-2.403,0.864,-30.579,4.639,29.358
-0.081,-2.216,0.829,-46.021,4.822,57.434
-0.078,-1.974,0.750,-53.528,1.404,77.026
-0.100,-1.953,0.818,-59.082,-3.906,88.501
-0.169,-1.739,0.755,-62.988,-2.319,111.328
-0.195,-1.558,0.617,-61.890,1.526,131.897
-0.238,-1.373,0.573,-58.289,0.000,148.560

-0.541,1.364,1.237,-52.429,-31.555,186.462
-0.573,1.657,1.300,-59.143,-28.259,171.631
-0.604,2.088,1.465,-58.044,-30.090,159.485
-0.534,2.508,1.652,-46.143,-26.733,142.578
-0.596,2.663,1.773,-30.029,-18.250,112.671
-0.522,2.863,1.777,-8.118,-2.808,83.862
-0.448,2.830,1.657,10.620,13.123,51.697
-0.427,2.487,1.533,19.775,26.855,9.705
-0.394,2.233,1.473,25.269,34.607,-20.752
-0.346,2.095,1.278,27.527,43.091,-40.405
-0.321,1.994,1.054,25.940,48.035,-60.425
-0.275,1.850,0.934,22.644,45.898,-84.412
-0.234,1.646,0.942,18.127,39.978,-108.154
-0.224,1.347,0.838,12.451,42.664,-132.141
-0.229,1.100,0.631,7.446,48.706,-150.208
-0.214,0.948,0.506,4.272,47.058,-162.048
-0.205,0.821,0.526,2.197,37.720,-171.936
-0.232,0.569,0.446,2.930,33.325,-184.143
-0.245,0.327,0.388,8.789,27.954,-192.627
-0.263,0.142,0.459,18.494,16.113,-193.970
-0.288,-0.138,0.542,28.809,7.996,-196.045
-0.297,-0.455,0.573,40.833,4.333,-194.519
-0.275,-0.736,0.598,52.856,1.587,-185.974
-0.257,-0.985,0.621,60.120,-1.282,-173.767
-0.251,-1.182,0.590,63.843,-3.967,-158.813
-0.199,-1.344,0.700,62.744,-10.315,-142.944
-0.200,-1.493,0.763,51.453,-13.062,-129.883
-0.240,-1.530,0.505,34.180,-13.428,-119.690
-0.156,-2.250,1.572,0.549,-38.269,-114.990
-0.188,-1.554,0.907,-18.372,-1.038,-75.256
-0.221,-2.035,1.017,-32.166,0.549,-94.055
-0.199,-2.349,1.208,-46.936,-8.911,-90.576
-0.101,-2.310,1.167,-50.598,-2.319,-58.350
-0.083,-2.418,1.037,-51.392,9.033,-30.823
-0.023,-2.466,1.088,-43.396,7.935,-3.418
-0.018,-2.336,0.932,-36.743,15.320,31.067
-0.028,-2.175,0.746,-28.076,21.667,64.209
-0.067,-1.986,0.637,-18.921,15.381,90.149
-0.103,-1.842,0.579,-12.695,6.775,111.389
-0.147,-1.589,0.595,-13.916,-1.526,133.057
-0.190,-1.310,0.541,-19.287,-4.150,153.564
-0.251,-1.094,0.538,-23.987,-8.118,164.612
-0.319,-0.900,0.588,-28.687,-12.329,170.715
-0.404,-0.700,0.655,-31.372,-13.672,175.049
-0.450,-0.481,0.700,-29.114,-12.024,179.504
-0.444,-0.327,0.745,-22.034,-9.460,182.068
-0.463,-0.293,0.658,-12.512,-5.920,183.044
-0.451,-0.153,0.721,-3.357,-7.507,191.040
-0.430,0.058,0.773,1.953,-11.658,200.867
-0.472,0.342,0.783,0.977,-14.771,208.740
-0.514,0.739,0.758,-1.953,-20.569,213.745
-0.593,1.175,0.779,-7.263,-31.128,211.121
-0.660,1.669,1.031,-12.878,-48.218,200.867
-0.711,2.255,1.561,-16.479,-65.796,184.814
-0.716,2.756,1.997,-14.648,-64.941,157.532
-0.617,2.993,2.083,-9.766,-39.673,116.394
-0.532,2.852,1.913,-11.230,-8.606,66.895
-0.503,2.518,1.654,-21.118,12.085,18.799
-0.433,2.464,1.630,-33.691,18.738,-9.155
-0.379,2.394,1.608,-41.565,23.987,-34.424
-0.377,2.268,1.519,-37.292,32.959,-61.218
-0.344,2.073,1.376,-20.508,41.931,-85.815
-0.314,1.822,1.195,3.479,49.683,-106.506
-0.287,1.480,0.972,27.283,55.786,-123.169
-0.259,1.160,0.787,48.035,57.739,-132.874
-0.242,0.964,0.691,65.125,54.138,-134.949
-0.236,0.841,0.607,79.895,50.293,-134.888
-0.252,0.744,0.539,91.675,47.058,-136.414
-0.296,0.629,0.535,102.539,41.443,-139.893
-0.326,0.508,0.492,110.107,37.598,-144.043
-0.335,0.360,0.432,112.183,33.569,-150.146
-0.350,0.088,0.461,105.591,25.757,-161.011
-0.371,-0.211,0.526,91.736,18.127,-170.471
-0.337,-0.462,0.560,75.195,13.306,-175.476
-0.315,-0.672,0.623,59.204,9.094,-177.917
-0.271,-0.913,0.715,41.443,6.592,-179.504
-0.239,-1.091,0.742,25.696,8.362,-176.086
-0.171,-1.228,0.784,11.597,10.376,-167.358
-0.110,-1.175,0.334,1.770,13.184,-159.546
-0.201,-1.938,1.245,-12.390,-13.306,-159.424
-0.135,-1.350,0.901,-28.503,11.292,-117.554
-0.154,-1.377,0.226,-16.541,45.349,-106.201
-0.181,-2.008,0.568,-8.789,-3.601,-132.812
-0.091,-2.087,1.219,-3.113,-36.011,-108.521
-0.086,-2.153,0.857,-2.930,-5.066,-74.524
-0.044,-2.342,0.613,-3.357,10.803,-49.622
0.016,-2.465,0.804,-5.432,-2.625,-24.292
0.036,-2.453,0.816,-9.033,-5.188,7.263
0.027,-2.374,0.713,-14.160,-1.221,38.635
-0.021,-2.272,0.737,-20.569,-5.310,65.918
-0.071,-2.093,0.788,-27.466,-10.986,91.858
-0.110,-1.854,0.657,-32.959,-10.620,113.647
-0.171,-1.707,0.640,-38.330,-14.587,127.136
-0.233,-1.561,0.697,-48.157,-19.348,141.663
-0.297,-1.411,0.696,-54.504,-18.433,155.640
-0.378,-1.220,0.665,-58.594,-14.771,169.495
-0.472,-0.921,0.740,-56.091,-14.343,183.899
-0.528,-0.617,0.824,-46.997,-13.000,193.787
-0.544,-0.378,0.801,-33.569,-7.019,200.073
-0.506,-0.232,0.712,-21.240,-3.113,204.102
-0.527,-0.092,0.723,-13.672,-6.348,208.923
-0.526,0.196,0.777,-12.207,-13.062,216.248
-0.538,0.585,0.784,-14.343,-17.761,221.497
-0.560,0.989,0.902,-20.203,-27.283,218.872
-0.597,1.347,1.112,-25.879,-38.635,206.604
-0.608,1.789,1.382,-27.649,-44.861,191.040
-0.581,2.200,1.604,-23.499,-42.114,167.847
-0.536,2.370,1.715,-19.409,-28.809,131.470
-0.528,2.393,1.785,-18.494,-12.207,91.675
-0.497,2.256,1.692,-16.968,4.028,56.580
-0.443,2.276,1.580,-16.907,17.639,31.921
-0.380,2.223,1.499,-20.386,25.879,8.667
-0.336,2.109,1.439,-27.710,30.823,-16.602
-0.311,2.053,1.344,-32.898,35.767,-37.292
-0.252,1.954,1.249,-31.311,39.063,-57.495
-0.199,1.801,1.048,-21.973,41.321,-79.895
-0.171,1.562,0.873,-10.925,40.955,-103.088
-0.160,1.270,0.772,-3.174,37.659,-123.779
-0.154,1.053,0.708,3.967,33.875,-136.292

-0.060,-1.099,0.653,-20.264,25.818,-79.651
-0.055,-1.424,0.416,-0.122,17.029,-93.750
-0.110,-1.778,0.938,14.038,-31.433,-98.328
-0.052,-1.823,1.244,27.466,-37.659,-72.205
-0.051,-1.839,0.835,31.006,0.366,-45.532
-0.037,-1.840,0.714,32.654,8.545,-23.437
-0.013,-1.920,0.902,28.992,-2.197,-8.667
-0.011,-1.929,0.869,17.517,1.038,8.789
0.000,-1.878,0.740,2.808,7.080,28.137
-0.013,-1.834,0.737,-14.465,3.296,43.823
-0.033,-1.793,0.783,-32.715,-2.014,57.983
-0.043,-1.702,0.816,-49.194,-2.930,73.914
-0.057,-1.610,0.719,-62.866,-0.366,88.562
-0.127,-1.543,0.712,-72.449,-1.221,100.952
-0.175,-1.523,0.677,-78.308,-0.671,116.760
-0.231,-1.396,0.676,-76.782,-0.732,137.512
-0.286,-1.200,0.664,-69.031,0.488,159.180
-0.351,-1.032,0.630,-56.091,0.977,177.246
-0.398,-0.760,0.675,-42.480,-0.488,194.641
-0.490,-0.492,0.639,-30.945,0.366,208.435
-0.528,-0.171,0.639,-24.841,-1.770,219.360
-0.590,0.220,0.778,-20.569,-9.827,225.342
-0.606,0.614,0.982,-22.766,-17.822,223.145
-0.545,1.011,1.111,-27.527,-18.799,215.698
-0.498,1.298,1.131,-35.889,-12.939,199.951
-0.473,1.431,1.146,-48.218,-8.240,176.941
-0.466,1.573,1.195,-60.486,-7.629,157.837
-0.484,1.813,1.239,-66.956,-7.385,146.179
-0.492,2.137,1.242,-64.758,-6.104,135.132
-0.441,2.473,1.285,-53.589,-7.080,119.080
-0.406,2.620,1.335,-35.156,-6.714,91.797
-0.378,2.577,1.325,-15.137,-2.075,57.617
-0.332,2.503,1.367,5.310,1.465,27.344
-0.279,2.337,1.342,26.306,7.568,-0.122
-0.239,2.146,1.213,46.265,17.456,-24.292
-0.218,1.963,1.119,62.805,23.743,-45.227
-0.206,1.770,1.028,76.477,27.039,-65.247
-0.197,1.553,0.908,87.891,30.396,-84.595
-0.206,1.347,0.783,93.811,31.982,-101.013
-0.160,1.143,0.654,94.055,31.799,-116.089
-0.195,0.970,0.598,86.914,28.320,-128.723
-0.203,0.794,0.576,76.355,24.536,-141.052
-0.222,0.631,0.567,65.979,20.081,-153.503
-0.275,0.484,0.563,54.565,15.625,-165.283
-0.347,0.327,0.634,46.448,9.338,-177.002
-0.412,0.091,0.695,39.429,3.967,-190.002
-0.426,-0.176,0.777,36.316,-0.610,-200.867
-0.403,-0.432,0.942,34.668,-5.310,-205.688
-0.375,-0.726,1.089,30.457,-3.967,-207.581
-0.339,-1.028,1.072,28.259,7.263,-203.674
-0.304,-1.219,0.932,30.457,20.752,-189.697
-0.220,-1.301,0.953,34.912,23.682,-170.532
-0.154,-1.204,0.300,38.025,28.259,-155.579
-0.098,-2.094,1.354,23.499,3.540,-150.879
-0.124,-1.234,0.616,8.179,34.302,-102.661
-0.156,-1.554,0.363,5.371,38.940,-112.732
-0.190,-1.945,0.754,-13.733,-4.150,-125.610
-0.148,-1.983,1.103,-27.527,-25.635,-105.347
-0.096,-2.054,1.211,-51.331,-11.841,-83.496
-0.114,-2.095,0.962,-77.820,18.616,-59.143
-0.088,-2.177,0.954,-91.248,22.156,-36.255
-0.045,-2.189,0.957,-90.881,20.020,-7.874
-0.018,-2.096,0.828,-81.421,25.635,26.428
-0.008,-2.020,0.621,-59.448,31.006,55.908
-0.064,-1.896,0.381,-37.598,23.437,81.543
-0.082,-1.746,0.495,-18.311,-0.488,106.934
-0.139,-1.540,0.592,-12.268,-12.329,130.249
-0.210,-1.367,0.574,-12.268,-11.536,149.597
-0.266,-1.159,0.545,-16.052,-11.658,164.734
-0.337,-0.889,0.640,-20.386,-16.785,177.246
-0.392,-0.648,0.769,-25.146,-19.836,184.448
-0.443,-0.413,0.852,-26.489,-16.724,189.087
-0.486,-0.238,0.891,-26.733,-12.512,192.261
-0.474,0.033,1.033,-24.048,-10.437,196.350
-0.444,0.254,1.086,-19.409,-4.150,195.496
-0.422,0.408,1.057,-17.212,3.357,190.430
-0.416,0.597,1.038,-15.564,5.615,187.866
-0.417,0.842,1.033,-16.846,1.953,187.744
-0.409,1.193,1.056,-19.714,-4.150,189.026
-0.442,1.596,1.110,-24.719,-10.498,184.265
-0.514,2.035,1.328,-28.687,-19.897,171.021
-0.504,2.485,1.611,-26.123,-25.696,151.917
-0.431,2.779,1.739,-17.029,-17.761,123.535
-0.359,2.761,1.567,-7.629,2.686,82.886
-0.287,2.601,1.301,-0.366,18.494,41.077
-0.225,2.382,1.197,3.845,21.362,4.822
-0.191,2.147,1.180,6.958,19.470,-25.940
-0.156,2.007,1.168,12.634,19.409,-48.462
-0.131,1.840,1.127,21.423,20.996,-69.275
-0.125,1.574,1.058,29.846,24.658,-91.980
-0.119,1.353,0.874,35.767,30.518,-107.239
-0.114,1.154,0.631,39.246,34.729,-118.286
-0.141,1.008,0.510,39.673,29.236,-127.747
-0.169,0.918,0.553,40.466,16.418,-135.986
-0.163,0.827,0.651,47.791,6.409,-145.813
-0.237,0.680,0.672,57.007,4.700,-158.142
-0.313,0.388,0.647,60.974,6.958,-172.546
-0.339,0.075,0.660,63.660,5.859,-182.556
-0.347,-0.186,0.674,63.416,3.784,-185.547
-0.333,-0.466,0.698,55.542,1.587,-186.646
-0.284,-0.672,0.800,43.091,-2.686,-184.448
-0.250,-0.856,0.934,32.104,-4.822,-178.589
-0.218,-1.067,0.966,23.376,-0.732,-172.424
-0.182,-1.226,1.012,16.052,6.165,-161.499
-0.112,-1.190,0.684,10.254,14.587,-147.949
-0.266,-1.707,1.140,5.615,-1.770,-142.456
-0.090,-1.365,1.172,-11.353,4.272,-105.713
-0.107,-1.230,0.421,3.967,41.443,-81.604
-0.128,-1.766,0.596,6.165,4.333,-101.013
-0.093,-1.770,1.162,12.268,-33.936,-79.163
-0.046,-1.746,1.271,13.123,-21.729,-54.626
-0.110,-1.758,0.859,4.822,15.625,-34.363
-0.096,-1.801,0.789,1.038,18.311,-16.724
-0.076,-1.848,0.895,-1.587,7.568,0.427
-0.049,-1.838,0.837,-2.808,9.338,21.423
-0.014,-1.775,0.690,-3.662,14.099,39.551
-0.063,-1.796,0.536,-5.432,8.118,52.307
-0.037,-1.769,0.741,-10.803,-11.536,70.557
-0.055,-1.603,0.728,-22.583,-11.353,94.177

-0.424,1.640,1.298,-31.494,-50.415,155.640
-0.439,2.100,1.588,-41.382,-52.490,145.203
-0.403,2.524,1.820,-42.908,-44.983,124.512
-0.360,2.701,1.817,-31.982,-24.658,88.257
-0.334,2.541,1.670,-15.930,-2.686,42.969
-0.301,2.297,1.542,0.671,9.216,4.456
-0.260,2.124,1.504,16.602,14.465,-21.729
-0.225,1.963,1.484,28.931,18.372,-43.396
-0.205,1.796,1.355,36.194,25.635,-64.270
-0.237,1.566,1.177,38.086,32.837,-83.984
-0.233,1.264,0.976,37.415,35.706,-102.295
-0.242,1.140,0.911,37.048,30.640,-111.267
-0.214,1.071,0.958,40.344,22.949,-118.713
-0.207,0.938,0.955,45.776,22.522,-130.554
-0.226,0.727,0.832,43.823,29.663,-145.691
-0.262,0.533,0.739,36.011,32.959,-158.936
-0.314,0.351,0.738,27.283,30.273,-169.922
-0.320,0.189,0.768,18.127,27.405,-179.687
-0.349,0.024,0.744,9.277,28.442,-188.782
-0.368,-0.217,0.705,0.305,29.175,-199.158
-0.373,-0.517,0.720,-5.859,25.024,-206.360
-0.326,-0.783,0.807,-9.094,18.127,-205.078
-0.243,-1.048,0.959,-10.376,14.832,-196.899
-0.136,-1.162,0.610,-7.263,20.325,-184.143
-0.200,-1.651,1.202,-5.005,5.737,-169.983
-0.020,-1.566,1.177,-5.859,26.367,-129.761
-0.078,-1.286,-0.034,13.428,72.266,-93.811
-0.073,-1.740,0.161,34.607,11.230,-103.088
-0.034,-1.839,1.032,47.546,-56.030,-83.557
-0.008,-1.768,1.088,54.382,-41.138,-50.232
-0.051,-1.744,0.722,51.147,-5.554,-25.330
-0.057,-1.825,0.829,46.814,-7.385,-8.179
-0.055,-1.895,0.973,39.490,-12.939,8.484
-0.056,-1.840,0.865,29.602,-2.747,31.677
-0.054,-1.662,0.704,19.897,3.113,52.124
-0.043,-1.719,0.730,15.320,-4.639,59.143
-0.060,-1.746,0.863,1.709,-11.963,70.251
-0.085,-1.603,0.748,-12.268,-4.089,94.238
-0.078,-1.513,0.644,-22.766,-0.671,110.229
-0.123,-1.449,0.628,-31.738,-3.235,122.559
-0.179,-1.349,0.596,-41.321,-4.150,136.841
-0.234,-1.188,0.558,-46.509,-4.150,152.344
-0.305,-1.062,0.516,-46.448,-5.981,165.710
-0.365,-0.851,0.601,-40.466,-10.986,180.359
-0.394,-0.554,0.687,-27.100,-15.930,194.580
-0.412,-0.223,0.725,-12.268,-16.846,203.857
-0.430,0.123,0.749,-3.113,-18.799,208.313
-0.446,0.422,0.881,-3.113,-24.963,205.811
-0.433,0.675,0.958,-8.240,-29.114,196.411
-0.409,0.939,0.954,-16.968,-29.236,185.852
-0.378,1.114,0.999,-28.687,-32.898,171.326
-0.365,1.234,1.145,-40.649,-40.100,155.640
-0.372,1.445,1.366,-50.476,-44.556,143.921
-0.408,1.804,1.565,-56.580,-43.091,135.071
-0.420,2.141,1.652,-56.274,-32.837,120.850
-0.387,2.430,1.670,-49.805,-20.691,99.182
-0.337,2.611,1.695,-41.992,-9.460,68.726
-0.284,2.600,1.644,-34.302,2.686,30.090
-0.227,2.420,1.467,-27.222,16.724,-10.681
-0.185,2.179,1.326,-20.264,25.391,-46.509
-0.159,1.907,1.272,-15.747,27.527,-76.904
-0.161,1.628,1.107,-10.864,33.020,-99.365
-0.150,1.413,0.915,-4.333,37.720,-113.708
-0.140,1.235,0.805,6.348,35.217,-123.169
-0.143,1.050,0.762,18.250,30.457,-131.226
-0.136,0.882,0.692,30.273,28.259,-137.146
-0.141,0.745,0.646,40.955,25.635,-140.869
-0.158,0.652,0.641,50.598,20.264,-144.592
-0.187,0.522,0.669,59.265,15.015,-150.208
-0.231,0.383,0.730,66.467,10.681,-156.860
-0.310,0.195,0.753,72.083,10.193,-162.964
-0.337,-0.046,0.741,75.317,11.414,-168.762
-0.319,-0.212,0.763,76.294,10.376,-171.082
-0.321,-0.367,0.797,69.580,9.766,-172.852
-0.313,-0.614,0.782,52.856,10.864,-178.040
-0.261,-0.810,0.760,30.518,13.428,-178.833
-0.227,-0.860,0.411,11.292,12.756,-177.002
-0.275,-1.431,1.419,-12.268,-12.939,-177.490
-0.090,-1.121,1.204,-30.945,24.841,-143.005
-0.176,-1.056,0.121,-25.208,69.092,-132.019
-0.178,-1.654,0.382,-12.573,7.568,-159.180
-0.111,-1.775,1.212,-1.343,-47.363,-141.602
-0.129,-1.784,1.003,0.000,-13.794,-110.168
-0.149,-1.927,0.456,-0.671,22.339,-85.266
-0.110,-2.090,0.630,4.822,3.174,-63.599
-0.085,-2.143,0.921,7.507,-16.479,-35.278
-0.095,-2.161,0.847,6.165,-8.728,-4.578
-0.111,-2.135,0.785,5.676,-5.737,25.208
-0.109,-2.101,0.863,4.822,-14.282,53.894
-0.096,-1.887,0.860,1.221,-18.555,81.055
-0.127,-1.880,0.817,-3.540,-20.996,98.206
-0.173,-1.823,0.877,-18.250,-24.719,118.958
-0.187,-1.615,0.822,-30.884,-19.958,147.400
-0.260,-1.423,0.750,-41.565,-15.015,167.297
-0.320,-1.297,0.706,-50.598,-12.085,180.054
-0.418,-1.101,0.709,-52.185,-10.986,192.932
-0.477,-0.828,0.713,-46.387,-8.423,207.092
-0.499,-0.575,0.748,-34.485,-6.836,216.736
-0.541,-0.254,0.786,-17.273,-6.958,224.609
-0.569,0.188,0.899,0.366,-9.094,233.521
-0.564,0.595,0.974,12.756,-9.705,232.483
-0.506,0.825,1.006,14.343,-9.705,217.163
-0.467,1.029,0.974,7.263,-9.216,199.341
-0.420,1.202,0.940,-2.625,-13.000,182.800
-0.399,1.336,0.959,-13.611,-21.301,165.283
-0.404,1.503,1.208,-24.963,-35.706,149.536
-0.431,1.792,1.602,-34.485,-48.340,138.489
-0.411,2.167,1.833,-36.987,-41.809,126.038
-0.404,2.488,1.801,-33.508,-20.508,104.187
-0.337,2.597,1.689,-24.719,-1.221,69.946
-0.317,2.468,1.582,-15.503,11.230,28.320
-0.278,2.220,1.435,-6.348,21.973,-9.033
-0.212,2.018,1.292,2.075,28.198,-36.011
-0.171,1.909,1.129,6.958,31.616,-55.420
-0.201,1.794,0.955,9.094,32.410,-75.378
-0.173,1.598,0.911,13.123,26.611,-98.267
-0.165,1.471,0.952,18.738,20.752,-115.784
-0.167,1.234,0.944,22.827,22.034,-132.996
-0.162,0.935,0.848,28.381,28.320,-148.621

-0.326,-1.266,1.289,6.958,5.920,-201.599
-0.294,-1.165,0.396,7.446,52.612,-173.218
-0.262,-1.450,0.398,13.184,17.944,-172.180
-0.151,-1.651,1.229,16.785,-36.316,-159.851
-0.186,-1.627,1.161,12.451,-12.878,-128.601
-0.228,-1.723,0.538,15.198,25.635,-106.812
-0.207,-1.870,0.543,25.330,11.292,-92.712
-0.167,-2.015,0.780,31.128,-11.108,-75.317
-0.155,-2.103,0.797,33.081,-11.719,-53.223
-0.143,-2.210,0.744,32.410,-7.996,-30.762
-0.120,-2.240,0.796,28.198,-10.742,-7.141
-0.092,-2.231,0.865,18.616,-13.184,16.418
-0.106,-2.191,0.835,4.700,-9.460,39.612
-0.114,-2.139,0.781,-11.841,-5.676,64.148
-0.137,-2.027,0.776,-29.053,-5.676,89.172
-0.159,-1.741,0.528,-38.147,-5.005,109.253
-0.186,-1.794,0.644,-46.509,-15.869,116.516
-0.261,-1.501,0.717,-59.387,-18.433,140.686
-0.318,-1.234,0.593,-62.683,-10.315,160.278
-0.384,-1.021,0.496,-59.814,-8.179,167.358
-0.438,-0.785,0.470,-52.185,-12.329,175.049
-0.484,-0.545,0.530,-43.579,-19.775,182.312
-0.498,-0.270,0.658,-35.339,-27.405,190.308
-0.506,-0.022,0.761,-28.809,-31.616,195.496
-0.524,0.217,0.933,-26.550,-34.790,197.632
-0.498,0.415,1.135,-29.053,-36.987,198.364
-0.471,0.711,1.122,-34.912,-29.785,200.195
-0.480,0.979,1.034,-38.940,-23.499,196.594
-0.467,1.331,1.197,-44.006,-31.616,192.078
-0.504,1.852,1.510,-51.758,-37.598,186.646
-0.519,2.374,1.494,-47.974,-26.123,172.241
-0.453,2.701,1.419,-34.058,-15.747,139.709
-0.378,2.717,1.510,-18.005,-15.808,95.337
-0.265,2.611,1.527,-11.536,-7.935,51.392
-0.246,2.100,1.428,-7.629,5.493,6.958
-0.192,2.000,1.437,-4.333,12.695,-14.893
-0.184,1.915,1.429,2.075,17.273,-29.602
-0.174,1.895,1.282,8.179,27.588,-46.265
-0.170,1.769,1.195,10.376,32.898,-65.125
-0.183,1.529,1.125,12.268,34.241,-87.891
-0.172,1.244,1.020,17.822,36.743,-106.079
-0.112,1.036,0.909,23.437,37.964,-117.065
-0.107,0.906,0.782,28.992,39.612,-124.329
-0.122,0.689,0.728,34.424,37.659,-133.911
-0.134,0.548,0.725,42.725,33.325,-139.832
-0.181,0.417,0.712,52.368,30.884,-142.822
-0.249,0.235,0.624,60.181,29.663,-147.156
-0.335,0.016,0.541,65.735,26.123,-150.391
-0.342,-0.204,0.640,70.190,14.404,-151.062
-0.282,-0.386,0.734,72.632,4.883,-149.292
-0.267,-0.573,0.746,67.688,3.235,-148.010
-0.260,-0.821,0.929,53.101,-3.601,-150.146
-0.111,-1.282,1.145,26.917,4.578,-140.930
-0.121,-0.735,0.681,16.174,38.330,-106.506
-0.121,-1.120,0.380,12.939,27.405,-127.319
-0.113,-1.445,1.051,5.676,-15.198,-138.428
-0.124,-1.520,1.030,-5.981,0.549,-121.033
-0.138,-1.620,0.428,-12.390,36.255,-104.309
-0.109,-1.819,0.443,-10.559,22.949,-93.384
-0.050,-2.031,0.699,-7.324,1.526,-78.003
-0.021,-2.182,0.590,-5.737,3.540,-56.213
0.004,-2.312,0.563,-3.296,1.160,-31.067
0.015,-2.360,0.653,1.038,-7.996,-2.319
0.006,-2.313,0.725,4.944,-12.634,29.785
-0.012,-2.254,0.694,5.005,-11.780,60.852
-0.047,-2.193,0.627,-0.061,-11.047,89.172
-0.106,-2.062,0.606,-13.550,-13.123,117.432
-0.171,-1.751,0.509,-26.184,-16.418,142.212
-0.217,-1.495,0.609,-35.461,-25.208,155.518
-0.300,-1.200,0.685,-48.523,-28.137,167.847
-0.356,-1.079,0.648,-55.359,-22.400,172.546
-0.396,-0.971,0.581,-52.429,-18.311,176.636
-0.427,-0.756,0.512,-41.687,-17.334,184.204
-0.473,-0.490,0.504,-27.039,-20.447,191.162
-0.487,-0.255,0.604,-13.428,-27.039,194.519
-0.505,0.017,0.693,-5.066,-32.288,197.266
-0.548,0.270,0.784,-5.432,-35.522,195.862
-0.603,0.526,0.985,-11.902,-41.748,192.444
-0.666,0.870,1.146,-18.005,-44.983,188.721
-0.665,1.242,1.202,-20.874,-43.152,184.143
-0.647,1.497,1.324,-25.085,-44.128,172.058
-0.591,1.682,1.464,-31.616,-44.006,153.564
-0.544,1.853,1.569,-37.781,-38.879,134.521
-0.498,1.997,1.691,-40.771,-31.616,113.342
-0.457,2.140,1.721,-39.001,-21.484,91.003
-0.417,2.252,1.720,-36.499,-10.071,67.505
-0.360,2.387,1.730,-32.898,-1.831,43.518
-0.307,2.373,1.695,-24.780,7.935,15.930
-0.276,2.207,1.555,-12.695,18.188,-13.489
-0.234,2.073,1.407,4.578,25.452,-35.339
-0.205,1.910,1.309,22.522,27.283,-54.016
-0.206,1.705,1.174,36.926,29.785,-71.838
-0.252,1.506,1.085,49.377,31.006,-86.243
-0.226,1.308,1.057,63.782,29.602,-98.755
-0.219,1.113,1.019,76.233,30.640,-109.863
-0.219,0.901,0.926,84.412,34.973,-122.192
-0.228,0.783,0.823,88.013,38.025,-131.836
-0.254,0.667,0.782,85.754,38.635,-142.395
-0.304,0.500,0.764,76.355,39.551,-155.945
-0.358,0.302,0.674,62.317,44.128,-169.373
-0.407,0.043,0.590,43.762,46.387,-183.044
-0.426,-0.218,0.625,26.123,42.175,-193.359
-0.397,-0.498,0.706,10.315,36.926,-199.219
-0.377,-0.754,0.790,-4.333,36.682,-199.219
-0.285,-0.891,0.433,-16.602,40.833,-193.970
-0.261,-1.333,0.983,-29.419,22.095,-190.186
-0.180,-1.402,0.778,-40.161,31.250,-167.297
-0.149,-1.332,0.028,-23.193,57.617,-141.296
-0.155,-1.665,0.297,2.197,11.780,-140.503
-0.108,-1.936,0.859,20.874,-27.527,-126.099
-0.111,-2.006,0.554,32.349,-6.226,-96.191
-0.100,-2.135,0.410,39.429,-0.549,-71.350
-0.076,-2.292,0.681,39.124,-17.822,-51.086
-0.082,-2.327,0.704,31.311,-18.555,-26.672
-0.083,-2.286,0.687,20.203,-15.198,-2.197
-0.077,-2.259,0.825,5.737,-19.470,19.043
-0.089,-2.208,0.950,-10.803,-20.508,38.818
-0.121,-2.030,0.956,-27.893,-13.611,60.486
-0.130,-1.879,0.839,-39.124,-7.690,75.928

-0.229,-1.598,0.828,-64.514,-3.296,107.239
-0.267,-1.436,0.735,-66.284,1.160,122.192
-0.309,-1.293,0.724,-62.927,1.160,134.033
-0.361,-1.120,0.744,-55.725,1.587,146.362
-0.377,-0.949,0.675,-46.387,5.798,157.288
-0.400,-0.844,0.479,-38.086,11.169,164.185
-0.440,-0.699,0.319,-34.180,8.606,171.997
-0.434,-0.411,0.324,-32.959,-4.822,184.021
-0.491,-0.041,0.495,-32.593,-22.217,195.435
-0.524,0.341,0.868,-36.072,-37.720,200.562
-0.574,0.666,1.049,-36.194,-39.612,200.317
-0.576,1.018,1.067,-33.325,-34.851,196.716
-0.564,1.384,1.125,-30.273,-35.400,190.613
-0.505,1.703,1.250,-30.090,-38.147,177.551
-0.463,1.971,1.354,-35.461,-36.255,158.630
-0.442,2.182,1.411,-37.964,-30.579,136.902
-0.395,2.372,1.507,-37.231,-27.710,113.892
-0.379,2.470,1.539,-34.302,-21.057,88.074
-0.361,2.563,1.570,-28.870,-13.489,60.669
-0.304,2.636,1.630,-20.386,-7.996,34.241
-0.259,2.491,1.479,-11.780,2.991,3.235
-0.236,2.260,1.231,-5.615,13.733,-26.733
-0.234,2.126,1.215,1.831,11.108,-49.194
-0.197,2.016,1.255,11.841,9.216,-69.336
-0.207,1.833,1.130,22.644,17.334,-91.125
-0.217,1.536,0.940,33.020,26.184,-114.624
-0.218,1.292,0.775,43.152,28.259,-132.874
-0.236,1.005,0.667,51.880,26.978,-147.400
-0.241,0.739,0.658,53.711,21.973,-157.715
-0.239,0.642,0.614,55.969,18.616,-158.203
-0.274,0.542,0.601,58.594,14.648,-159.546
-0.322,0.348,0.606,59.998,8.728,-165.955
-0.366,0.095,0.676,57.312,2.808,-173.096
-0.397,-0.141,0.850,53.589,-2.808,-177.185
-0.385,-0.355,0.957,52.063,-2.319,-177.429
-0.388,-0.584,0.936,48.950,4.272,-176.575
-0.383,-0.799,0.828,42.175,12.085,-172.974
-0.384,-0.911,0.782,33.386,13.672,-164.856
-0.347,-0.957,0.833,25.085,11.597,-156.738
-0.365,-1.253,0.999,20.935,6.531,-155.701
-0.315,-1.374,1.005,5.310,7.202,-143.188
-0.271,-1.236,0.420,8.667,41.382,-122.009
-0.285,-1.696,0.590,16.418,13.062,-132.324
-0.218,-1.914,1.026,14.343,-17.090,-121.582
-0.184,-1.970,0.872,7.568,-2.625,-96.741
-0.186,-2.092,0.790,-0.061,9.705,-77.820
-0.155,-2.244,0.824,-5.920,6.348,-58.960
-0.118,-2.383,0.776,-12.573,7.874,-36.804
-0.103,-2.404,0.758,-19.775,7.751,-9.766
-0.093,-2.334,0.793,-23.071,4.578,19.714
-0.088,-2.214,0.816,-23.804,1.404,48.279
-0.098,-1.962,0.732,-25.513,2.930,75.806
-0.143,-1.819,0.675,-23.621,1.404,93.140
-0.213,-1.722,0.828,-29.480,-4.944,106.323
-0.259,-1.441,0.770,-33.630,-0.122,130.066
-0.287,-1.289,0.641,-36.011,5.249,143.982
-0.347,-1.145,0.547,-41.504,5.432,153.015
-0.402,-0.944,0.523,-45.776,2.625,162.598
-0.424,-0.769,0.539,-47.607,-0.671,170.410
-0.439,-0.717,0.518,-44.006,-2.319,175.049
-0.464,-0.600,0.468,-33.386,-4.272,183.899
-0.488,-0.356,0.491,-21.484,-12.329,198.608
-0.560,-0.036,0.579,-14.587,-23.560,212.036
-0.588,0.437,0.871,-11.108,-34.729,222.229
-0.596,0.823,0.997,-9.766,-36.743,219.543
-0.621,1.124,0.994,-11.597,-32.104,207.458
-0.606,1.551,1.094,-12.878,-36.743,195.129
-0.559,1.969,1.316,-16.113,-43.274,178.223
-0.513,2.304,1.488,-21.118,-41.626,153.809
-0.452,2.414,1.611,-23.865,-34.485,120.605
-0.391,2.351,1.655,-28.442,-24.231,84.961
-0.374,2.263,1.601,-33.936,-11.536,56.091
-0.341,2.312,1.639,-35.583,-5.615,35.278
-0.312,2.312,1.669,-35.278,-0.427,15.259
-0.251,2.222,1.573,-31.921,9.583,-7.324
-0.230,2.198,1.433,-20.813,18.555,-26.550
-0.234,2.067,1.385,-6.714,22.034,-48.096
-0.231,1.851,1.295,7.568,26.428,-71.167
-0.248,1.666,1.112,19.653,34.607,-89.233
-0.288,1.427,0.981,28.320,38.025,-107.727
-0.312,1.206,0.898,37.964,37.415,-123.474
-0.313,1.024,0.791,46.326,37.292,-135.010
-0.301,0.849,0.721,52.673,36.255,-145.508
-0.301,0.627,0.678,57.312,33.203,-156.494
-0.314,0.415,0.616,56.396,30.884,-166.260
-0.333,0.214,0.594,47.974,27.893,-174.133
-0.391,-0.018,0.648,38.574,22.339,-181.946
-0.406,-0.301,0.724,29.724,17.822,-188.232
-0.389,-0.513,0.750,21.606,15.930,-187.195
-0.347,-0.746,0.733,13.733,16.296,-182.861
-0.311,-0.960,0.791,9.216,14.160,-176.086
-0.246,-1.002,0.335,11.414,15.625,-165.710
-0.187,-1.470,1.187,11.719,-2.625,-157.837
-0.216,-1.257,0.738,13.306,19.165,-126.709
-0.165,-1.373,0.280,31.738,31.738,-112.793
-0.132,-1.733,0.714,50.842,-11.597,-114.197
-0.102,-1.807,0.950,62.866,-25.757,-91.736
-0.108,-1.854,0.748,64.758,-5.188,-66.101
-0.106,-1.912,0.599,59.143,0.854,-48.218
-0.072,-2.078,0.731,44.617,-5.676,-36.011
-0.069,-2.205,0.817,21.667,-6.042,-21.790
-0.071,-2.237,0.762,-0.793,-0.732,-2.014
-0.074,-2.306,0.757,-18.433,0.061,17.273
-0.077,-2.259,0.789,-32.104,-1.648,40.955
-0.067,-2.107,0.587,-41.504,-0.427,65.063
-0.123,-2.062,0.702,-50.537,-7.751,82.520
-0.188,-1.773,0.738,-59.387,-8.545,110.168
-0.245,-1.459,0.662,-59.448,-3.113,132.385
-0.320,-1.202,0.583,-57.190,-0.610,145.874
-0.382,-1.006,0.476,-51.331,-0.610,155.273
-0.411,-0.730,0.339,-44.495,-2.563,165.161
-0.433,-0.433,0.331,-37.231,-12.207,172.913
-0.432,-0.208,0.455,-29.785,-26.611,174.377
-0.443,-0.028,0.653,-25.940,-38.452,174.927
-0.495,0.184,0.941,-29.053,-45.898,178.711
-0.494,0.574,1.208,-32.898,-47.485,185.669
-0.500,0.884,1.133,-37.415,-35.095,183.777
-0.480,0.944,1.101,-43.884,-27.161,169.189
-0.454,1.060,1.169,-47.241,-26.428,159.180

-0.496,1.802,1.276,-45.410,-22.766,152.893
-0.490,2.285,1.447,-37.659,-25.818,141.907
-0.461,2.673,1.609,-25.574,-25.269,120.300
-0.398,2.743,1.601,-14.526,-14.221,84.290
-0.348,2.648,1.528,-6.714,-2.625,44.006
-0.277,2.466,1.540,-0.427,2.258,7.751
-0.250,2.182,1.549,3.479,8.240,-24.841
-0.240,1.954,1.470,6.165,17.517,-48.706
-0.224,1.764,1.366,8.240,25.269,-66.650
-0.212,1.576,1.248,10.803,30.945,-82.458
-0.218,1.385,1.050,13.123,37.048,-97.229
-0.228,1.160,0.932,17.761,38.391,-111.511
-0.236,0.971,0.899,25.818,34.668,-122.375
-0.218,0.870,0.837,36.926,32.776,-128.174
-0.213,0.725,0.766,46.387,32.532,-135.437
-0.224,0.599,0.700,52.490,31.372,-143.188
-0.244,0.444,0.654,55.420,29.724,-150.574
-0.293,0.231,0.641,56.824,27.466,-158.936
-0.350,-0.014,0.637,56.030,25.452,-165.344
-0.373,-0.236,0.610,53.955,23.560,-169.189
-0.342,-0.478,0.712,45.288,19.409,-171.875
-0.317,-0.719,0.583,25.940,16.235,-175.903
-0.295,-1.087,1.139,7.874,-1.526,-177.002
-0.218,-1.114,1.046,-9.094,12.756,-158.081
-0.196,-1.120,0.373,-3.235,42.542,-138.977
-0.144,-1.440,0.612,9.644,8.728,-139.587
-0.085,-1.534,1.027,16.174,-15.259,-121.399
-0.092,-1.505,0.694,20.142,6.836,-95.398
-0.094,-1.569,0.599,25.879,9.827,-78.918
-0.083,-1.666,0.872,31.128,-4.944,-65.308
-0.103,-1.767,0.751,30.945,-0.122,-50.476
-0.101,-1.828,0.640,28.442,4.639,-34.180
-0.097,-1.929,0.716,24.719,-1.892,-18.250
-0.112,-2.064,0.696,18.555,-3.906,-2.563
-0.115,-2.110,0.678,10.742,-5.554,18.311
-0.107,-2.109,0.726,-1.526,-10.010,42.786
-0.129,-2.089,0.766,-19.958,-13.000,65.552
-0.139,-1.934,0.659,-36.682,-13.123,87.708
-0.167,-1.935,0.753,-53.894,-18.372,103.882
-0.177,-1.724,0.765,-72.327,-18.005,128.906
-0.298,-1.495,0.621,-83.191,-10.254,151.611
-0.406,-1.245,0.592,-88.440,-9.033,167.419
-0.475,-0.905,0.682,-84.167,-12.878,182.495
-0.518,-0.560,0.708,-74.219,-10.132,192.383
-0.562,-0.229,0.714,-58.777,-6.287,196.472
-0.594,0.084,0.603,-39.551,-3.906,197.327
-0.510,0.323,0.520,-24.475,-8.240,195.618
-0.482,0.655,0.685,-20.386,-23.010,193.604
-0.475,0.907,0.978,-22.766,-35.645,185.364
-0.456,1.087,1.200,-27.039,-39.856,173.767
-0.433,1.269,1.302,-30.640,-34.607,165.283
-0.424,1.421,1.321,-32.715,-25.635,157.166
-0.441,1.583,1.259,-34.912,-18.250,148.987
-0.445,1.846,1.257,-36.438,-17.517,141.724
-0.486,2.108,1.373,-34.973,-20.935,130.676
-0.519,2.702,1.511,-29.358,-20.203,118.164
-0.464,3.025,1.532,-13.306,-12.451,93.079
-0.394,2.966,1.438,5.371,-1.343,46.204
-0.340,2.673,1.308,18.677,7.202,-2.380
-0.283,2.249,1.320,22.400,10.254,-45.044
-0.255,1.944,1.350,22.034,14.221,-73.853
-0.211,1.793,1.229,22.339,25.269,-91.797
-0.219,1.530,0.995,21.729,36.804,-111.572
-0.216,1.185,0.842,22.034,39.795,-130.493
-0.199,0.900,0.738,25.452,36.438,-140.808
-0.167,0.715,0.655,30.273,31.982,-144.714
-0.161,0.579,0.629,33.508,26.001,-146.973
-0.171,0.464,0.671,37.720,19.104,-148.804
-0.198,0.395,0.716,43.213,13.916,-149.536
-0.251,0.284,0.713,48.401,12.024,-152.100
-0.320,0.059,0.708,49.438,11.047,-158.325
-0.388,-0.194,0.811,47.791,6.531,-162.354
-0.395,-0.399,0.930,47.607,4.944,-161.011
-0.384,-0.424,0.572,48.218,8.301,-157.532
-0.318,-0.751,1.195,37.903,-2.258,-159.241
-0.344,-0.705,0.914,30.701,19.897,-148.560
-0.303,-0.934,0.544,27.893,27.039,-149.536
-0.228,-1.155,0.944,18.921,5.493,-148.193
-0.243,-1.253,0.875,8.850,10.132,-134.155
-0.185,-1.363,0.707,4.578,17.700,-120.422
-0.159,-1.425,0.622,2.808,15.564,-105.530
-0.134,-1.531,0.721,4.089,4.517,-91.370
-0.125,-1.680,0.732,8.972,-0.366,-77.026
-0.110,-1.733,0.667,15.686,-1.709,-57.312
-0.086,-1.782,0.748,22.522,-9.338,-37.781
-0.080,-1.905,0.843,25.330,-15.564,-21.179
-0.077,-1.918,0.837,24.780,-14.648,0.061
-0.086,-1.877,0.836,20.874,-13.489,22.217
-0.108,-1.845,0.888,13.000,-14.648,41.321
-0.124,-1.806,0.918,1.282,-12.939,59.509
-0.154,-1.682,0.882,-12.817,-8.423,78.125
-0.147,-1.553,0.740,-21.606,-5.920,91.736
-0.187,-1.516,0.846,-35.095,-10.620,101.135
-0.234,-1.370,0.815,-47.302,-6.165,118.225
-0.262,-1.251,0.724,-51.575,-0.671,131.653
-0.301,-1.149,0.614,-53.101,2.380,143.311
-0.358,-1.068,0.487,-52.246,3.174,154.175
-0.396,-0.863,0.383,-48.523,0.610,168.701
-0.439,-0.574,0.410,-39.124,-7.996,183.289
-0.455,-0.313,0.415,-26.917,-17.639,193.359
-0.523,0.047,0.492,-14.404,-28.381,203.857
-0.575,0.589,0.773,-6.348,-43.518,212.280
-0.588,1.048,1.031,0.366,-52.612,207.764
-0.552,1.283,1.156,3.235,-50.903,188.782
-0.484,1.335,1.194,-1.221,-43.762,164.185
-0.457,1.333,1.279,-10.193,-39.612,143.066
-0.455,1.394,1.391,-23.743,-37.354,129.639
-0.443,1.734,1.462,-35.278,-34.363,126.587
-0.429,2.201,1.554,-39.307,-33.386,122.437
-0.457,2.538,1.648,-41.443,-29.358,101.685
-0.455,2.705,1.761,-40.649,-18.188,70.007
-0.427,2.735,1.645,-30.212,-0.671,36.011
-0.354,2.554,1.558,-16.296,10.742,-2.380
-0.319,2.212,1.504,-5.676,17.700,-39.185
-0.294,1.898,1.414,3.906,25.879,-66.406
-0.272,1.730,1.301,12.817,33.020,-82.336
-0.269,1.559,1.198,20.325,38.208,-96.741
-0.291,1.306,1.055,26.062,43.396,-113.892
-0.312,1.045,0.926,33.081,45.288,-127.625

-0.119,-1.857,0.807,32.043,-16.479,-15.442
-0.121,-1.898,0.827,34.058,-17.090,3.052
-0.110,-1.909,0.848,31.555,-17.151,21.545
-0.102,-1.899,0.892,21.118,-17.212,38.879
-0.129,-1.930,0.937,0.916,-15.076,54.260
-0.142,-1.795,0.952,-22.705,-10.376,73.547
-0.171,-1.519,0.851,-42.969,-3.967,93.750
-0.177,-1.484,0.738,-56.519,-1.526,100.464
-0.230,-1.366,0.769,-72.144,-3.601,109.863
-0.263,-1.146,0.738,-81.177,-1.465,125.854
-0.326,-0.950,0.689,-81.360,1.160,135.620
-0.366,-0.877,0.706,-74.463,1.404,140.991
-0.370,-0.876,0.616,-61.768,3.723,146.851
-0.394,-0.908,0.398,-48.645,8.057,156.860
-0.424,-0.842,0.240,-36.804,2.747,173.584
-0.473,-0.526,0.304,-26.489,-15.320,198.975
-0.554,-0.106,0.531,-20.752,-36.011,222.046
-0.637,0.497,0.885,-21.667,-50.781,236.694
-0.704,1.184,1.187,-26.062,-55.115,238.586
-0.694,1.795,1.361,-31.555,-51.453,225.342
-0.624,2.180,1.385,-38.269,-42.114,194.763
-0.558,2.387,1.468,-47.729,-30.701,155.212
-0.496,2.419,1.536,-54.260,-19.897,116.333
-0.433,2.428,1.536,-51.086,-10.132,81.726
-0.347,2.359,1.454,-44.067,0.244,52.795
-0.353,2.227,1.344,-35.767,7.751,26.550
-0.344,2.188,1.295,-23.560,10.498,9.521
-0.295,2.253,1.248,-7.629,11.597,-1.892
-0.259,2.167,1.215,9.583,13.184,-19.653
-0.253,1.904,1.230,26.245,13.794,-42.480
-0.243,1.760,1.177,41.992,17.639,-57.373
-0.234,1.699,1.034,55.664,23.682,-68.298
-0.268,1.531,0.955,63.965,26.245,-86.487
-0.301,1.376,0.954,67.749,25.330,-105.042
-0.331,1.222,0.924,69.336,27.710,-120.789
-0.396,0.924,0.872,67.505,33.081,-139.343
-0.365,0.801,0.559,62.744,38.696,-154.419
-0.355,0.558,0.607,53.711,28.259,-169.067
-0.402,0.385,0.700,30.151,16.968,-182.434
-0.450,0.159,0.868,15.076,16.113,-193.237
-0.428,-0.147,1.004,7.812,18.860,-203.308
-0.429,-0.457,0.852,5.554,30.701,-205.688
-0.397,-0.809,0.755,13.550,31.799,-203.003
-0.318,-0.980,0.676,29.602,26.917,-186.951
-0.274,-1.031,0.604,44.128,21.545,-164.368
-0.243,-1.084,0.495,57.190,15.991,-144.897
-0.213,-1.083,0.527,68.848,4.456,-127.258
-0.159,-1.102,0.687,76.111,-5.615,-112.976
-0.160,-1.193,0.656,76.721,-3.357,-102.539
-0.190,-1.362,0.714,71.350,-6.531,-95.886
-0.100,-1.458,0.959,57.861,-14.221,-85.449
-0.131,-1.513,1.073,35.706,-10.437,-73.853
-0.156,-1.612,1.057,12.817,-0.061,-64.697
-0.169,-1.704,1.080,-4.272,5.432,-53.955
-0.151,-1.783,1.047,-16.968,10.315,-39.124
-0.137,-1.865,0.950,-24.902,14.954,-22.217
-0.111,-1.951,0.857,-24.414,15.625,-2.075
-0.077,-1.948,0.749,-19.104,13.062,21.912
-0.069,-1.902,0.623,-15.930,9.888,47.180
-0.079,-1.832,0.586,-16.968,3.784,71.106
-0.082,-1.679,0.624,-19.470,-3.662,94.299
-0.104,-1.451,0.516,-19.165,-5.920,111.755
-0.140,-1.502,0.569,-23.010,-11.902,117.065
-0.242,-1.290,0.661,-35.156,-17.151,133.301
-0.309,-1.014,0.643,-42.725,-14.343,149.719
-0.351,-0.744,0.632,-46.021,-12.817,156.433
-0.394,-0.571,0.682,-48.035,-13.000,155.396
-0.417,-0.567,0.732,-46.082,-11.963,149.597
-0.428,-0.568,0.700,-39.001,-6.531,147.705
-0.436,-0.559,0.641,-29.785,-2.808,151.611
-0.419,-0.549,0.562,-21.362,-3.479,159.912
-0.446,-0.451,0.484,-15.808,-8.972,175.842
-0.456,-0.040,0.565,-16.418,-22.217,198.914
-0.486,0.448,0.637,-23.743,-35.461,215.515
-0.560,0.834,0.791,-35.950,-48.340,214.722
-0.674,1.466,1.292,-47.913,-67.749,211.304
-0.683,2.273,1.746,-49.255,-74.890,203.979
-0.586,2.795,1.916,-46.814,-55.481,172.913
-0.542,2.915,1.736,-43.823,-22.522,122.986
-0.475,2.766,1.667,-44.800,-4.944,70.679
-0.395,2.600,1.673,-48.401,2.441,29.297
-0.346,2.398,1.597,-51.453,13.733,-3.174
-0.313,2.239,1.465,-47.913,24.048,-26.611
-0.276,2.141,1.364,-35.645,28.687,-42.847
-0.236,1.962,1.251,-16.235,31.128,-58.655
-0.205,1.782,1.058,4.700,34.851,-72.632
-0.187,1.596,0.920,24.414,34.851,-84.351
-0.186,1.362,0.827,41.260,31.311,-97.656
-0.208,1.149,0.779,53.955,28.381,-109.192
-0.217,0.991,0.776,63.660,25.452,-117.432
-0.234,0.907,0.727,70.557,25.574,-124.512
-0.250,0.802,0.682,72.388,23.926,-133.850
-0.286,0.670,0.706,67.810,20.813,-146.179
-0.347,0.525,0.772,59.143,20.264,-158.447
-0.394,0.329,0.602,51.086,24.963,-171.509
-0.401,0.019,0.647,45.044,22.766,-183.533
-0.461,-0.357,0.695,37.476,16.296,-188.599
-0.327,-0.554,0.912,28.381,11.536,-181.396
-0.320,-0.710,0.562,22.705,29.602,-171.143
-0.290,-0.943,0.532,21.790,18.616,-166.077
-0.242,-1.062,0.790,25.208,-1.953,-153.015
-0.197,-1.114,0.731,26.245,0.000,-136.536
-0.170,-1.184,0.661,30.579,1.831,-123.352
-0.143,-1.297,0.791,33.508,-6.409,-111.938
-0.126,-1.355,0.872,34.119,-9.094,-98.145
-0.119,-1.413,0.862,33.081,-5.371,-85.754
-0.117,-1.516,0.891,28.381,-3.235,-76.477
-0.111,-1.648,0.922,20.142,-1.404,-67.261
-0.105,-1.753,0.914,10.132,2.380,-55.542
-0.106,-1.872,0.883,-1.221,5.981,-41.992
-0.107,-1.999,0.846,-13.977,7.507,-26.001
-0.077,-2.060,0.780,-24.292,7.812,-4.944
-0.076,-2.036,0.735,-31.311,4.639,19.409
-0.099,-2.042,0.774,-38.452,-0.977,43.945
-0.120,-2.053,0.766,-42.725,-4.517,69.092
-0.131,-1.946,0.664,-45.959,-4.333,98.633
-0.173,-1.704,0.564,-46.387,-7.568,125.732
-0.180,-1.685,0.571,-43.030,-16.541,140.320
-0.260,-1.442,0.685,-48.889,-24.231,160.583

-0.659,1.904,1.399,-61.096,-53.589,188.171
-0.626,2.223,1.568,-50.903,-44.861,169.006
-0.552,2.544,1.523,-32.227,-31.250,151.489
-0.512,2.648,1.499,-16.663,-20.569,120.972
-0.472,2.706,1.597,-5.493,-15.747,86.121
-0.431,2.673,1.617,5.798,-5.859,50.903
-0.391,2.560,1.479,16.296,8.728,15.076
-0.370,2.329,1.349,22.461,18.860,-19.104
-0.343,2.144,1.302,24.597,22.949,-48.950
-0.323,1.965,1.207,23.132,27.893,-75.134
-0.328,1.712,1.069,17.883,33.691,-102.234
-0.343,1.375,0.926,10.376,37.109,-126.404
-0.343,1.004,0.864,3.174,35.767,-144.836
-0.292,0.781,0.812,3.235,33.447,-152.100
-0.259,0.673,0.678,6.470,33.020,-151.001
-0.242,0.562,0.596,14.160,28.992,-151.245
-0.258,0.508,0.678,27.832,20.569,-151.367
-0.303,0.432,0.538,46.021,17.151,-153.015
-0.297,0.247,0.596,65.308,7.446,-157.288
-0.359,0.055,0.911,77.881,-2.075,-157.837
-0.339,-0.075,0.965,80.322,3.601,-155.640
-0.397,-0.265,0.713,80.444,22.705,-157.410
-0.363,-0.510,0.802,77.393,14.648,-160.767
-0.297,-0.698,1.000,61.462,7.263,-158.447
-0.270,-0.853,0.790,37.781,19.958,-153.076
-0.226,-1.032,0.715,15.076,21.240,-148.621
-0.170,-1.117,0.795,-3.479,11.475,-139.771
-0.135,-1.194,0.819,-14.038,8.911,-129.944
-0.102,-1.318,0.793,-16.296,9.216,-122.681
-0.089,-1.489,0.728,-13.794,8.972,-113.892
-0.078,-1.618,0.648,-5.005,6.775,-101.318
-0.072,-1.764,0.679,5.615,0.183,-87.341
-0.077,-1.927,0.687,15.259,-3.845,-71.899
-0.058,-2.055,0.729,22.583,-8.301,-52.307
-0.047,-2.156,0.840,24.963,-14.221,-29.968
-0.039,-2.213,0.919,21.301,-15.198,-6.592
-0.049,-2.223,0.977,10.925,-13.489,17.029
-0.074,-2.116,1.006,-4.150,-10.925,42.847
-0.123,-1.954,0.983,-20.447,-5.859,68.115
-0.155,-1.809,0.914,-35.339,-1.404,89.478
-0.208,-1.633,0.852,-48.157,1.160,108.521
-0.200,-1.439,0.753,-50.903,-0.122,122.314
-0.242,-1.368,0.883,-56.030,-5.859,130.127
-0.330,-1.127,0.733,-62.500,1.587,148.132
-0.353,-0.967,0.531,-61.951,7.568,159.302
-0.421,-0.789,0.533,-58.228,2.075,166.870
-0.490,-0.634,0.620,-48.584,-4.822,174.011
-0.508,-0.405,0.543,-30.518,-5.188,184.814
-0.506,-0.121,0.450,-12.939,-7.935,197.205
-0.528,0.167,0.529,-4.272,-20.081,204.651
-0.547,0.474,0.727,-2.258,-33.447,208.130
-0.576,0.817,0.839,-3.845,-41.565,209.778
-0.548,1.176,1.070,-7.507,-48.157,206.848
-0.609,1.599,1.141,-14.465,-46.509,196.899
-0.691,2.096,1.431,-22.644,-49.194,179.993
-0.671,2.734,1.837,-25.879,-47.546,159.607
-0.599,3.030,1.781,-20.935,-23.804,122.986
-0.510,2.825,1.614,-15.259,-0.854,67.749
-0.458,2.498,1.557,-13.062,7.751,20.447
-0.393,2.230,1.551,-12.695,13.916,-11.047
-0.330,2.086,1.530,-13.794,20.691,-31.067
-0.299,1.982,1.423,-13.611,30.029,-47.302
-0.272,1.881,1.227,-9.338,37.720,-63.477
-0.249,1.756,1.079,-1.343,40.527,-79.651
-0.229,1.505,0.994,8.545,40.344,-97.656
-0.213,1.205,0.831,19.897,41.077,-114.136
-0.173,1.011,0.696,32.776,40.588,-123.718
-0.180,0.849,0.679,41.687,34.546,-130.127
-0.189,0.650,0.692,49.683,29.297,-137.024
-0.192,0.488,0.637,59.021,27.832,-140.259
-0.201,0.329,0.559,67.261,26.611,-141.968
-0.236,0.097,0.522,70.862,22.278,-145.691
-0.250,-0.116,0.580,69.031,15.320,-148.010
-0.202,-0.314,0.663,60.486,9.216,-147.400
-0.216,-0.439,0.418,49.561,6.836,-147.278
-0.199,-0.780,1.204,29.663,-10.132,-147.034
-0.246,-0.585,0.648,14.465,15.747,-130.676
-0.211,-0.668,0.570,18.677,14.221,-129.272
-0.183,-0.828,1.086,18.066,-15.747,-133.972
-0.136,-0.886,1.026,15.076,-3.784,-124.329
-0.134,-0.991,0.635,16.479,17.090,-115.906
-0.109,-1.150,0.796,20.874,5.737,-109.192
-0.103,-1.269,0.949,24.841,-2.319,-98.389
-0.113,-1.379,0.806,29.419,6.348,-86.975
-0.122,-1.593,0.739,32.593,7.996,-78.430
-0.100,-1.768,0.742,32.654,3.845,-66.284
-0.086,-1.913,0.684,31.128,2.014,-49.316
-0.038,-2.069,0.635,25.452,-0.671,-32.043
-0.045,-2.206,0.686,12.695,-7.141,-13.184
-0.048,-2.233,0.795,-1.221,-15.015,10.071
-0.046,-2.143,0.867,-15.747,-17.639,37.231
-0.072,-2.023,0.899,-32.349,-15.869,61.707
-0.067,-1.884,0.844,-47.485,-11.475,82.825
-0.168,-1.647,0.750,-62.683,-7.690,102.295
-0.175,-1.585,0.716,-69.092,-8.789,113.281
-0.257,-1.425,0.838,-76.843,-12.207,126.587
-0.328,-1.104,0.825,-75.195,-5.066,147.095
-0.353,-0.850,0.787,-62.683,1.587,159.180
-0.381,-0.705,0.669,-45.898,7.874,164.795
-0.405,-0.587,0.438,-30.457,12.695,171.143
-0.427,-0.362,0.255,-19.836,7.996,182.068
-0.452,0.004,0.332,-14.526,-10.620,194.031
-0.458,0.353,0.542,-15.503,-32.043,199.585
-0.509,0.647,0.784,-20.020,-44.922,197.327
-0.531,0.993,1.058,-25.696,-51.392,193.726
-0.548,1.307,1.177,-29.846,-49.622,183.960
-0.560,1.599,1.301,-35.095,-46.021,166.809
-0.603,1.886,1.427,-39.856,-41.260,147.156
-0.572,2.191,1.596,-41.931,-33.997,127.808
-0.523,2.463,1.587,-41.199,-19.897,105.347
-0.484,2.542,1.522,-39.734,-7.019,71.899
-0.426,2.484,1.501,-37.964,-0.610,35.645
-0.371,2.340,1.438,-35.461,5.554,2.380
-0.330,2.221,1.417,-29.053,10.132,-23.437
-0.285,2.069,1.425,-16.479,13.367,-45.776
-0.267,1.873,1.338,-1.709,19.836,-65.735
-0.258,1.645,1.144,13.489,28.748,-81.238
-0.217,1.441,1.003,26.550,31.067,-94.177
-0.242,1.243,1.010,34.973,29.907,-104.919

-0.042,-1.848,0.712,70.068,-15.320,-21.667
-0.039,-1.849,0.713,62.622,-15.137,-6.042
-0.028,-1.915,0.713,45.105,-14.343,5.310
-0.043,-2.018,0.796,21.179,-16.296,15.625
-0.053,-2.050,0.849,-3.601,-15.503,30.518
-0.053,-1.979,0.858,-24.780,-12.207,52.063
-0.090,-1.885,0.810,-42.664,-8.240,72.815
-0.124,-1.703,0.642,-52.979,-7.019,90.149
-0.169,-1.702,0.797,-60.059,-16.235,101.929
-0.215,-1.489,0.822,-66.040,-16.541,125.244
-0.292,-1.325,0.714,-63.354,-8.667,145.264
-0.368,-1.225,0.738,-57.007,-8.057,158.386
-0.442,-1.062,0.809,-47.424,-8.545,174.744
-0.493,-0.861,0.790,-35.767,-3.723,191.711
-0.556,-0.630,0.652,-22.888,1.587,207.642
-0.599,-0.373,0.496,-13.916,0.427,221.802
-0.659,-0.014,0.415,-17.517,-9.460,232.300
-0.732,0.461,0.516,-31.433,-26.550,237.244
-0.752,1.036,0.823,-45.654,-47.302,236.694
-0.701,1.651,1.202,-54.626,-59.448,225.464
-0.698,1.913,1.249,-57.190,-52.063,193.909
-0.649,2.015,1.392,-56.274,-44.495,157.288
-0.589,2.291,1.507,-51.453,-37.903,133.301
-0.526,2.350,1.528,-46.204,-27.039,104.187
-0.474,2.324,1.538,-42.297,-16.479,72.266
-0.426,2.332,1.493,-38.086,-6.226,46.753
-0.383,2.283,1.380,-34.302,2.930,21.790
-0.366,2.239,1.324,-30.579,7.507,-0.244
-0.324,2.204,1.278,-22.217,9.705,-19.470
-0.301,2.113,1.180,-10.986,13.672,-40.161
-0.289,1.980,1.136,0.549,15.076,-61.035
-0.289,1.785,1.037,12.634,16.724,-81.421
-0.302,1.618,0.883,24.902,19.958,-99.792
-0.330,1.418,0.856,35.767,21.118,-117.432
-0.358,1.243,0.701,52.917,20.203,-135.437
-0.330,0.821,1.014,63.049,6.165,-155.212
-0.353,0.700,0.914,63.782,19.165,-154.724
-0.359,0.563,0.580,62.927,38.574,-154.907
-0.372,0.364,0.590,62.805,30.457,-162.415
-0.403,0.191,0.718,57.739,18.005,-168.701
-0.437,0.034,0.757,50.659,14.038,-172.302
-0.423,-0.116,0.798,43.945,12.024,-176.086
-0.416,-0.303,0.913,36.926,8.301,-181.152
-0.414,-0.550,0.991,31.250,8.118,-184.814
-0.402,-0.778,0.944,25.635,14.221,-182.983
-0.375,-0.887,0.880,21.973,17.883,-173.767
-0.318,-0.990,0.868,20.813,15.869,-163.757
-0.257,-1.120,0.894,22.949,13.184,-154.907
-0.213,-1.257,0.928,27.893,10.803,-144.409
-0.172,-1.372,0.957,34.729,12.085,-130.676
-0.175,-1.506,0.852,39.795,17.212,-115.906
-0.156,-1.628,0.832,43.396,17.029,-99.670
-0.114,-1.725,0.841,44.556,14.099,-82.153
-0.083,-1.813,0.753,38.879,16.602,-64.941
-0.055,-1.960,0.666,25.024,16.968,-49.316
-0.007,-2.033,0.642,7.629,12.207,-31.372
0.019,-2.013,0.649,-10.315,6.775,-9.521
0.011,-2.007,0.654,-26.733,3.357,10.803
0.001,-2.022,0.677,-38.269,0.366,30.701
0.018,-1.945,0.660,-43.640,-1.221,55.725
-0.021,-1.874,0.580,-46.387,-0.977,81.055
-0.096,-1.787,0.523,-46.448,-2.136,104.919
-0.120,-1.606,0.349,-36.804,-7.568,125.427
-0.209,-1.493,0.545,-31.921,-23.499,141.296
-0.347,-1.184,0.712,-32.104,-29.968,165.283
-0.422,-0.826,0.812,-23.437,-27.100,182.312
-0.478,-0.517,0.852,-11.780,-20.508,189.453
-0.507,-0.378,0.872,-2.014,-13.672,185.059
-0.500,-0.315,0.814,3.662,-6.653,179.810
-0.500,-0.243,0.649,2.319,-1.648,179.260
-0.507,-0.111,0.531,-11.292,-5.798,181.641
-0.533,0.140,0.695,-33.447,-21.912,186.401
-0.553,0.473,0.923,-53.711,-37.048,191.528
-0.615,0.821,1.220,-68.176,-46.265,196.106
-0.632,1.433,1.498,-70.374,-48.889,199.829
-0.685,1.873,1.473,-64.880,-35.522,187.439
-0.650,2.146,1.510,-54.871,-24.719,163.940
-0.609,2.463,1.493,-43.762,-15.686,143.066
-0.512,2.583,1.450,-33.936,-7.324,113.037
-0.448,2.618,1.458,-28.076,-2.014,78.308
-0.397,2.510,1.402,-23.437,4.944,41.931
-0.348,2.358,1.331,-17.883,11.292,8.789
-0.307,2.254,1.297,-12.268,15.259,-16.724
-0.282,2.087,1.243,-7.874,19.775,-42.053
-0.270,1.881,1.168,-3.540,24.597,-66.406
-0.260,1.607,1.057,1.038,29.968,-88.318
-0.252,1.354,0.905,5.493,34.302,-105.408
-0.271,1.133,0.743,10.010,35.889,-117.737
-0.214,0.948,0.582,15.503,33.386,-127.930
-0.219,0.900,0.631,22.827,24.475,-135.010
-0.261,0.931,0.555,32.715,15.320,-146.240
-0.319,0.638,0.818,43.091,4.211,-165.222
-0.333,0.561,0.932,43.335,8.545,-170.837
-0.398,0.402,0.613,44.861,30.945,-176.453
-0.415,0.083,0.653,51.086,21.851,-192.383
-0.388,-0.219,0.918,54.321,7.446,-199.219
-0.359,-0.449,0.909,50.659,14.404,-196.472
-0.344,-0.658,0.701,42.419,25.269,-190.796
-0.281,-0.870,0.687,32.654,19.592,-184.814
-0.246,-0.979,0.776,24.353,8.972,-172.913
-0.188,-1.089,0.782,16.968,5.737,-159.973
-0.154,-1.185,0.797,12.817,2.625,-146.118
-0.134,-1.273,0.850,12.756,-1.404,-131.897
-0.114,-1.370,0.924,16.052,-4.333,-117.676
-0.119,-1.510,0.934,22.400,-2.808,-104.248
-0.134,-1.684,0.886,28.625,-0.366,-90.515
-0.139,-1.821,0.842,34.302,0.427,-72.327
-0.119,-1.961,0.881,39.368,-2.563,-51.453
-0.109,-2.068,0.936,41.687,-5.066,-28.320
-0.075,-2.145,0.912,39.673,-3.784,-3.540
-0.063,-2.124,0.896,31.677,-3.906,22.583
-0.083,-2.018,0.905,18.005,-4.578,48.706
-0.094,-1.899,0.827,0.549,-2.197,71.838
-0.113,-1.770,0.749,-22.034,-0.061,91.492
-0.167,-1.556,0.671,-44.495,0.305,109.436
-0.155,-1.401,0.539,-55.420,-2.319,119.446
-0.239,-1.242,0.727,-68.298,-12.878,126.831
-0.321,-0.953,0.775,-76.538,-10.803,140.625
-0.391,-0.698,0.738,-69.275,-3.784,147.461

-0.661,1.498,1.556,-66.711,-65.735,208.801
-0.703,2.187,1.839,-84.839,-58.716,194.336
-0.677,2.930,1.840,-89.539,-33.752,174.683
-0.614,3.188,1.580,-80.933,-6.348,132.385
-0.472,3.137,1.560,-62.866,0.488,78.430
-0.371,2.938,1.583,-46.143,2.319,31.128
-0.322,2.456,1.506,-31.860,12.329,-13.428
-0.290,2.109,1.479,-17.578,19.165,-40.405
-0.255,1.995,1.358,-1.831,27.588,-50.049
-0.249,1.923,1.185,15.076,34.729,-59.265
-0.254,1.733,1.072,31.067,36.499,-75.317
-0.274,1.482,1.019,45.837,35.828,-92.285
-0.288,1.200,0.932,58.167,37.659,-106.079
-0.290,0.974,0.816,66.406,39.490,-115.173
-0.276,0.793,0.712,70.129,39.063,-122.070
-0.302,0.729,0.418,70.618,39.001,-129.333
-0.252,0.537,0.408,74.524,22.888,-143.188
-0.240,0.316,0.915,67.322,0.671,-153.198
-0.262,0.355,0.635,58.777,18.433,-148.804
-0.298,0.085,0.501,53.345,24.231,-161.743
-0.321,-0.248,0.693,51.697,7.629,-173.767
-0.281,-0.457,0.767,47.546,4.211,-171.387
-0.277,-0.620,0.663,35.767,12.573,-165.771
-0.274,-0.793,0.652,25.696,11.230,-161.621
-0.223,-0.979,0.751,22.461,2.441,-155.884
-0.165,-1.096,0.786,20.325,-0.427,-145.691
-0.120,-1.161,0.820,23.315,-0.977,-132.202
-0.093,-1.268,0.827,27.466,-0.366,-121.460
-0.085,-1.375,0.802,30.640,1.587,-109.741
-0.077,-1.453,0.776,34.668,2.869,-96.741
-0.081,-1.550,0.759,36.987,3.357,-85.815
-0.076,-1.693,0.693,35.706,4.578,-76.172
-0.101,-1.888,0.578,29.419,5.249,-65.735
-0.080,-2.048,0.585,19.653,0.916,-51.331
-0.067,-2.155,0.683,7.935,-6.104,-31.799
-0.065,-2.256,0.730,-3.845,-8.301,-10.071
-0.070,-2.315,0.751,-13.916,-8.484,14.465
-0.104,-2.246,0.696,-24.597,-7.385,45.349
-0.133,-2.097,0.702,-34.973,-8.362,77.759
-0.147,-1.853,0.638,-42.419,-9.827,106.262
-0.208,-1.680,0.496,-40.649,-12.268,124.084
-0.279,-1.625,0.729,-45.288,-25.818,137.024
-0.372,-1.294,0.776,-47.485,-23.682,164.246
-0.468,-0.893,0.746,-43.640,-16.357,184.937
-0.518,-0.513,0.798,-35.706,-16.052,195.984
-0.559,-0.119,0.817,-26.917,-15.564,201.416
-0.561,0.299,0.846,-22.034,-14.404,201.721
-0.513,0.604,0.948,-23.987,-16.113,192.444
-0.494,0.624,0.956,-30.090,-12.207,170.898
-0.461,0.498,0.928,-39.001,-7.446,150.208
-0.447,0.329,0.880,-47.302,-6.592,141.724
-0.405,0.457,1.013,-57.739,-10.681,148.987
-0.472,0.758,0.999,-71.045,-12.024,163.147
-0.480,1.300,1.082,-80.505,-18.066,173.584
-0.565,2.253,1.321,-83.313,-27.405,183.411
-0.639,3.182,1.487,-78.857,-25.757,167.725
-0.518,3.531,1.489,-52.307,-16.724,121.643
-0.345,3.484,1.463,-17.456,-8.911,59.631
-0.326,2.836,1.261,5.859,1.465,-7.019
-0.244,2.119,1.200,22.400,5.066,-55.359
-0.174,1.862,1.271,36.255,2.441,-69.702
-0.168,1.753,1.245,43.213,8.362,-76.355
-0.189,1.560,1.078,49.561,18.799,-89.661
-0.203,1.320,0.864,55.420,25.513,-103.577
-0.228,1.107,0.750,60.242,24.902,-114.014
-0.224,0.874,0.660,64.880,22.217,-123.840
-0.228,0.692,0.647,66.956,17.029,-130.371
-0.250,0.581,0.653,67.566,11.536,-134.949
-0.308,0.446,0.721,67.505,7.141,-141.602
-0.284,0.230,0.878,69.824,3.601,-150.818
-0.328,0.060,0.895,56.396,4.578,-159.302
-0.350,-0.094,0.752,36.926,17.090,-163.330
-0.381,-0.324,0.763,18.616,15.625,-172.791
-0.375,-0.530,0.912,2.441,7.263,-175.171
-0.338,-0.713,0.921,-10.620,10.498,-170.349
-0.324,-0.829,0.747,-17.944,16.663,-161.377
-0.273,-1.016,0.723,-19.592,10.681,-152.100
-0.236,-1.195,0.864,-15.503,-0.916,-140.259
-0.176,-1.285,0.894,-6.165,-3.662,-122.131
-0.129,-1.368,0.891,5.066,-4.272,-102.722
-0.078,-1.431,0.975,19.409,-8.484,-85.327
-0.077,-1.520,1.033,32.288,-8.240,-70.129
-0.112,-1.611,0.999,42.419,-3.113,-56.763
-0.131,-1.706,0.947,47.913,0.488,-43.640
-0.129,-1.775,0.925,46.875,1.770,-30.212
-0.109,-1.836,0.894,40.588,3.296,-16.418
-0.111,-1.972,0.848,26.855,5.188,-6.226
-0.102,-2.095,0.844,9.888,4.578,6.958
-0.086,-2.116,0.865,-7.202,3.235,28.442
-0.114,-2.095,0.844,-26.672,5.188,52.734
-0.129,-1.957,0.797,-42.908,8.057,80.383
-0.165,-1.726,0.710,-53.528,9.766,107.239
-0.138,-1.644,0.612,-55.664,7.385,124.268
-0.246,-1.598,0.730,-63.660,0.305,141.113
-0.343,-1.486,0.705,-69.275,2.869,167.358
-0.422,-1.302,0.666,-63.904,5.249,194.214
-0.522,-0.988,0.643,-53.345,4.944,221.375
-0.629,-0.626,0.665,-39.307,1.953,243.103
-0.702,-0.176,0.582,-23.804,0.244,257.629
-0.762,0.333,0.440,-12.878,-2.014,264.587
-0.810,0.843,0.516,-7.629,-16.541,258.789
-0.785,1.375,0.859,-3.113,-38.391,243.958
-0.717,1.798,1.060,4.272,-45.959,220.093
-0.632,2.029,1.105,6.653,-41.565,183.777
-0.557,1.916,1.051,1.221,-35.278,138.123
-0.470,1.839,1.230,-13.000,-35.583,102.722
-0.434,1.848,1.324,-28.870,-31.433,81.116
-0.414,1.784,1.387,-38.208,-24.902,59.814
-0.371,1.942,1.495,-44.067,-21.118,47.119
-0.365,2.096,1.540,-47.485,-12.024,33.447
-0.370,2.214,1.524,-46.570,-2.380,14.404
-0.354,2.369,1.431,-40.039,6.104,-4.395
-0.326,2.372,1.283,-28.381,13.184,-29.968
-0.339,2.205,1.193,-11.414,15.015,-61.646
-0.394,1.978,1.181,8.179,13.855,-90.027
-0.343,1.748,1.112,28.015,16.113,-111.450
-0.336,1.515,0.963,42.908,22.522,-129.700
-0.334,1.179,0.888,52.246,26.245,-148.743
-0.339,0.991,0.676,62.073,26.917,-164.062

-0.169,-1.751,0.809,9.338,3.967,-112.427
-0.120,-1.899,0.770,15.564,3.967,-93.079
-0.111,-2.011,0.726,20.630,1.038,-71.472
-0.091,-2.173,0.737,17.334,-2.441,-50.537
-0.083,-2.293,0.806,10.925,-6.897,-26.489
-0.075,-2.280,0.884,4.272,-9.216,0.610
-0.069,-2.236,0.887,-2.380,-7.263,27.466
-0.083,-2.194,0.837,-13.123,-3.784,51.086
-0.080,-2.078,0.769,-27.100,-1.892,75.928
-0.131,-1.943,0.748,-42.969,-1.587,99.487
-0.193,-1.724,0.665,-55.725,-1.343,120.300
-0.207,-1.622,0.713,-57.434,-5.676,134.521
-0.282,-1.396,0.853,-62.988,-10.254,152.771
-0.377,-1.115,0.807,-61.707,-1.587,174.072
-0.466,-0.885,0.834,-52.429,2.258,187.561
-0.515,-0.674,0.956,-42.480,2.930,197.937
-0.524,-0.473,1.003,-31.555,7.935,207.642
-0.547,-0.257,0.960,-25.635,17.212,215.637
-0.594,-0.047,0.949,-27.100,21.912,220.215
-0.673,0.281,0.987,-32.166,21.240,224.670
-0.720,0.732,1.022,-38.940,19.653,228.394
-0.762,1.144,0.866,-47.424,19.653,224.731
-0.771,1.714,0.874,-54.626,11.230,217.285
-0.729,2.239,0.813,-56.519,2.197,198.059
-0.644,2.543,1.066,-52.307,-12.939,163.330
-0.563,2.672,1.236,-42.847,-22.278,124.084
-0.485,2.646,1.323,-29.236,-20.935,83.130
-0.436,2.629,1.419,-14.709,-16.296,47.302
-0.362,2.451,1.313,0.366,-3.662,12.695
-0.346,2.180,1.142,15.198,7.568,-17.822
-0.318,1.960,1.114,24.536,10.376,-38.635
-0.262,1.890,1.034,31.921,13.367,-50.659
-0.227,1.888,0.831,37.109,19.104,-62.256
-0.226,1.755,0.622,39.185,19.714,-80.933
-0.223,1.549,0.618,42.053,10.925,-102.478
-0.214,1.360,0.693,47.058,2.502,-121.216
-0.208,1.120,0.631,51.392,2.563,-138.855
-0.223,0.964,0.516,51.392,3.662,-153.198
-0.272,0.792,0.424,48.889,3.174,-166.138
-0.326,0.663,0.453,50.476,-6.042,-180.481
-0.340,0.470,0.995,47.363,-25.024,-193.542
-0.426,0.403,0.916,43.335,-9.521,-198.608
-0.469,0.153,0.885,45.776,-2.380,-212.708
-0.524,-0.152,1.111,52.246,-7.690,-224.182
-0.557,-0.565,1.131,53.589,0.854,-228.882
-0.469,-0.889,0.981,51.331,14.038,-224.854
-0.415,-1.006,0.901,44.617,17.700,-208.496
-0.401,-1.222,0.859,36.560,16.846,-195.435
-0.349,-1.365,0.834,32.349,13.306,-180.420
-0.263,-1.415,0.840,29.846,9.216,-161.011
-0.254,-1.532,0.888,24.536,6.287,-145.447
-0.259,-1.693,0.927,19.958,5.981,-131.775
-0.248,-1.816,0.886,19.226,8.301,-115.662
-0.265,-2.001,0.817,18.555,9.827,-99.304
-0.255,-2.221,0.825,17.822,6.653,-81.421
-0.228,-2.367,0.873,17.761,1.099,-55.969
-0.198,-2.430,0.891,16.907,-0.366,-26.306
-0.188,-2.471,0.910,13.550,-0.732,3.418
-0.177,-2.413,0.879,5.554,-0.183,34.485
-0.174,-2.277,0.822,-4.395,0.671,66.895
-0.150,-2.150,0.803,-17.395,0.671,94.666
-0.200,-2.005,0.798,-33.325,1.465,119.934
-0.247,-1.776,0.682,-46.082,5.310,141.479
-0.280,-1.726,0.734,-48.218,2.380,154.785
-0.404,-1.429,0.871,-58.655,1.160,177.002
-0.469,-1.104,0.878,-58.105,11.414,197.937
-0.520,-0.821,0.831,-45.349,21.423,208.008
-0.578,-0.639,0.805,-31.311,27.771,212.952
-0.567,-0.565,0.746,-15.503,30.945,215.210
-0.591,-0.440,0.669,-4.517,31.433,221.985
-0.638,-0.277,0.622,-3.784,27.527,230.225
-0.705,0.021,0.660,-8.240,16.602,238.831
-0.774,0.512,0.709,-14.954,3.845,248.474
-0.800,1.043,0.752,-21.851,-7.751,250.366
-0.787,1.580,0.879,-26.611,-23.499,243.469
-0.677,2.225,1.308,-29.236,-42.236,227.356
-0.585,2.536,1.436,-32.715,-39.551,189.514
-0.508,2.547,1.559,-39.185,-29.602,138.489
-0.440,2.699,1.565,-43.884,-17.273,102.234
-0.356,2.693,1.449,-41.870,-3.845,66.101
-0.287,2.639,1.350,-39.795,3.723,28.992
-0.232,2.548,1.216,-36.560,10.071,-3.662
-0.211,2.402,1.110,-28.564,12.756,-33.630
-0.221,2.238,1.023,-17.883,12.573,-59.937
-0.197,2.073,0.903,-3.113,12.146,-82.092
-0.166,1.880,0.816,13.672,9.338,-102.173
-0.177,1.597,0.720,27.832,7.690,-121.582
-0.172,1.318,0.637,40.588,6.592,-137.085
-0.181,1.125,0.609,50.049,3.052,-146.545
-0.196,0.991,0.570,57.739,0.488,-153.809
-0.256,0.905,0.562,62.622,-1.587,-163.452
-0.325,0.879,0.630,67.200,-6.104,-174.500
-0.424,0.773,0.780,67.749,-11.230,-192.444
-0.532,0.463,0.936,59.143,-9.766,-216.003
-0.614,0.071,1.006,46.204,-2.808,-236.389
-0.687,-0.398,1.055,33.875,4.272,-248.108
-0.571,-0.722,1.112,17.090,6.470,-244.385
-0.482,-0.836,1.051,3.784,20.996,-227.661
-0.459,-1.098,0.968,-5.066,24.597,-219.299
-0.373,-1.211,0.818,-3.418,22.644,-201.477
-0.311,-1.318,0.701,4.639,19.226,-180.542
-0.275,-1.473,0.687,18.738,9.338,-162.170
-0.253,-1.580,0.782,34.119,-1.160,-140.625
-0.260,-1.704,0.854,49.072,-6.592,-120.178
-0.288,-1.848,0.789,61.523,-5.859,-101.685
-0.300,-2.043,0.764,65.674,-6.958,-85.022
-0.252,-2.187,0.864,59.387,-12.573,-66.101
-0.237,-2.281,0.939,44.373,-13.489,-45.410
-0.163,-2.384,0.991,25.208,-9.827,-25.391
-0.128,-2.459,1.003,2.197,-5.188,-3.479
-0.126,-2.457,0.932,-21.790,1.709,21.362
-0.092,-2.345,0.835,-40.771,6.897,50.537
-0.057,-2.270,0.750,-55.420,9.399,78.308
-0.092,-2.179,0.677,-67.627,10.681,105.347
-0.210,-2.026,0.579,-75.928,11.841,131.836
-0.247,-1.936,0.506,-67.078,6.958,153.442
-0.366,-1.706,0.671,-62.988,-3.601,180.115
-0.531,-1.352,0.676,-58.533,-0.427,209.717
-0.640,-0.939,0.722,-45.349,1.709,228.149

-0.678,1.815,1.169,-50.110,-43.518,192.017
-0.653,2.380,1.424,-48.706,-50.354,179.626
-0.566,2.941,1.693,-43.640,-50.049,159.485
-0.489,3.127,1.700,-34.485,-33.997,121.521
-0.395,3.036,1.732,-23.865,-19.775,71.350
-0.329,2.905,1.687,-12.512,-5.615,28.076
-0.296,2.608,1.480,-3.601,12.329,-11.353
-0.272,2.438,1.285,5.432,22.278,-39.185
-0.243,2.434,1.052,15.320,25.879,-59.937
-0.297,2.247,0.851,25.635,25.024,-88.318
-0.277,1.927,0.799,36.255,18.188,-119.324
-0.251,1.608,0.854,47.485,10.498,-141.968
-0.241,1.229,0.839,56.641,12.329,-160.156
-0.232,0.904,0.745,61.523,18.738,-172.058
-0.274,0.720,0.690,62.317,21.057,-177.368
-0.324,0.586,0.649,60.852,20.752,-182.617
-0.399,0.427,0.575,57.373,20.813,-190.735
-0.486,0.242,0.568,54.749,16.846,-200.500
-0.536,-0.020,0.600,56.152,10.620,-210.693
-0.517,-0.364,0.667,61.096,4.089,-220.703
-0.543,-0.756,1.143,62.927,-3.906,-220.825
-0.473,-0.847,0.973,59.143,11.047,-204.224
-0.411,-1.030,0.748,52.979,24.719,-194.702
-0.365,-1.284,0.987,41.748,12.207,-191.650
-0.318,-1.342,1.073,29.907,13.550,-176.941
-0.311,-1.404,0.804,19.104,30.884,-161.743
-0.257,-1.513,0.714,10.254,31.677,-151.001
-0.198,-1.573,0.700,0.122,25.696,-138.123
-0.185,-1.741,0.563,-10.681,25.940,-127.075
-0.153,-1.998,0.454,-16.724,21.240,-115.295
-0.085,-2.175,0.484,-16.785,8.850,-92.407
-0.032,-2.349,0.462,-16.113,-0.061,-64.209
-0.034,-2.506,0.438,-13.916,-6.409,-32.532
-0.042,-2.552,0.558,-11.047,-18.066,2.625
-0.068,-2.411,0.651,-6.165,-27.100,43.823
-0.110,-2.227,0.695,-4.700,-30.151,80.078
-0.209,-2.011,0.777,-7.324,-33.020,109.192
-0.264,-1.737,0.871,-12.024,-33.691,133.606
-0.331,-1.265,0.877,-14.465,-29.541,152.649
-0.315,-1.124,0.934,-11.658,-28.015,151.733
-0.345,-1.056,1.114,-19.653,-26.855,146.606
-0.365,-0.937,0.977,-29.541,-8.179,151.245
-0.365,-0.976,0.796,-37.720,5.371,149.658
-0.405,-1.055,0.767,-45.410,8.118,149.841
-0.438,-1.060,0.706,-49.988,9.644,160.400
-0.452,-0.953,0.639,-49.927,11.108,178.345
-0.564,-0.769,0.646,-51.147,7.507,197.144
-0.674,-0.458,0.766,-49.927,0.671,217.224
-0.757,0.065,0.906,-43.640,-6.042,238.281
-0.813,0.672,1.011,-33.936,-10.681,251.160
-0.871,1.186,1.155,-26.733,-14.954,249.329
-0.805,1.881,1.246,-20.874,-20.020,243.103
-0.696,2.427,1.194,-21.179,-19.287,217.590
-0.592,2.698,1.241,-32.593,-25.757,172.791
-0.464,2.830,1.535,-51.025,-32.288,124.451
-0.398,2.744,1.510,-60.547,-21.057,77.271
-0.334,2.467,1.453,-61.584,-9.277,29.846
-0.279,2.317,1.565,-55.542,-6.836,-0.427
-0.235,2.131,1.493,-44.128,3.906,-22.339
-0.195,2.045,1.268,-27.283,18.860,-36.987
-0.155,1.973,1.126,-9.277,24.963,-50.049
-0.147,1.828,1.024,7.996,27.466,-65.918
-0.169,1.771,0.642,25.818,32.288,-82.458
-0.152,1.453,0.514,42.053,22.278,-105.469
-0.163,1.265,0.505,46.814,6.897,-120.544
-0.176,1.167,0.537,45.044,0.122,-128.479
-0.198,1.014,0.575,44.006,-4.883,-141.724
-0.206,0.843,0.650,44.006,-10.681,-155.945
-0.226,0.679,0.778,42.969,-13.855,-168.640
-0.303,0.450,0.825,38.574,-10.742,-181.458
-0.386,0.155,0.863,36.011,-6.836,-193.054
-0.430,-0.166,0.894,39.063,-5.859,-199.829
-0.438,-0.425,1.009,45.166,-7.202,-200.623
-0.442,-0.645,1.036,49.927,-3.418,-197.510
-0.429,-0.859,0.982,53.528,3.784,-191.589
-0.361,-1.013,0.951,53.162,7.446,-182.373
-0.341,-1.103,0.974,46.692,7.935,-171.753
-0.318,-1.193,0.971,36.560,10.864,-161.560
-0.339,-1.366,0.925,27.466,15.808,-151.550
-0.291,-1.562,0.800,19.836,19.653,-139.099
-0.243,-1.655,0.830,14.404,14.160,-120.361
-0.207,-1.773,0.878,10.254,8.423,-102.478
-0.215,-1.912,0.800,4.883,10.498,-84.961
-0.197,-2.104,0.706,-1.221,11.047,-66.772
-0.194,-2.308,0.709,-7.019,5.615,-44.983
-0.186,-2.460,0.757,-14.954,-0.732,-18.555
-0.176,-2.545,0.807,-27.405,-4.700,11.047
-0.192,-2.555,0.818,-44.617,-5.859,44.189
-0.224,-2.490,0.845,-62.561,-5.432,78.491
-0.239,-2.252,0.881,-74.829,-4.272,114.929
-0.323,-2.000,0.707,-76.111,-1.648,143.250
-0.412,-1.919,0.914,-76.050,-8.423,162.537
-0.551,-1.550,1.033,-74.707,-4.761,194.336
-0.672,-1.105,1.045,-63.171,8.118,220.947
-0.687,-0.701,1.115,-48.096,18.066,235.291
-0.672,-0.353,1.125,-30.273,28.809,240.845
-0.666,-0.101,0.920,-16.846,44.922,239.136
-0.648,0.017,0.687,-11.658,53.650,232.300
-0.650,0.116,0.636,-11.902,46.631,225.586
-0.642,0.406,0.697,-12.512,33.569,227.600
-0.611,0.831,0.773,-12.451,20.813,231.812
-0.551,1.204,0.749,-18.677,10.498,229.431
-0.566,1.778,0.919,-28.931,-3.601,222.412
-0.594,2.243,0.962,-41.260,-9.399,201.233
-0.532,2.683,1.235,-47.974,-19.409,170.044
-0.442,2.967,1.287,-46.143,-18.799,132.507
-0.355,2.836,1.312,-36.926,-10.315,80.505
-0.271,2.466,1.454,-24.292,-8.118,30.457
-0.237,2.010,1.242,-13.000,8.301,-4.089
-0.200,1.897,1.048,-1.343,20.203,-15.991
-0.156,2.013,1.036,10.254,18.250,-20.203
-0.138,2.020,0.972,19.653,17.944,-33.997
-0.172,1.882,0.788,29.175,20.813,-54.626
-0.122,1.703,0.625,41.809,17.273,-74.036
-0.110,1.575,0.553,53.040,7.996,-90.454
-0.106,1.385,0.545,62.317,-0.671,-108.337
-0.139,1.195,0.597,70.740,-7.996,-126.404
-0.160,1.053,0.737,74.707,-13.367,-140.991
-0.170,0.925,0.839,76.416,-13.062,-154.541

-0.272,-1.718,0.692,-11.047,30.396,-137.329
-0.247,-1.951,0.631,-9.155,26.794,-122.864
-0.215,-2.158,0.561,-4.150,21.118,-102.722
-0.179,-2.390,0.533,2.319,14.221,-78.125
-0.117,-2.604,0.579,8.423,4.639,-48.157
-0.081,-2.711,0.632,9.033,-4.089,-11.108
-0.102,-2.780,0.682,2.747,-8.789,26.123
-0.127,-2.651,0.704,-9.766,-11.902,67.078
-0.155,-2.380,0.685,-28.259,-12.390,108.765
-0.258,-2.193,0.687,-49.011,-11.536,140.991
-0.339,-1.911,0.600,-63.843,-10.437,167.175
-0.378,-1.734,0.582,-63.232,-15.137,184.937
-0.463,-1.542,0.770,-68.237,-23.926,203.308
-0.571,-1.149,0.803,-70.190,-15.198,227.295
-0.645,-0.738,0.766,-60.730,-4.517,240.112
-0.680,-0.456,0.785,-48.096,1.526,239.685
-0.688,-0.292,0.735,-33.752,7.446,233.276
-0.641,-0.194,0.437,-20.691,17.273,228.455
-0.649,-0.032,0.156,-11.719,14.404,226.379
-0.678,0.320,0.158,-14.465,-7.751,228.088
-0.699,0.848,0.512,-26.794,-41.260,229.065
-0.668,1.435,0.883,-40.283,-63.293,223.022
-0.627,1.834,1.322,-52.246,-74.707,206.116
-0.573,2.204,1.681,-61.157,-74.585,182.800
-0.559,2.287,1.672,-66.528,-51.025,148.499
-0.499,2.433,1.771,-65.186,-35.889,120.178
-0.450,2.670,1.730,-55.908,-20.081,99.670
-0.397,2.651,1.562,-40.100,-3.723,68.604
-0.337,2.609,1.502,-22.034,2.991,35.828
-0.302,2.421,1.357,-4.578,10.132,4.211
-0.276,2.219,1.253,10.559,14.526,-22.766
-0.248,2.150,1.244,23.193,14.404,-41.138
-0.234,2.051,1.231,33.630,16.235,-61.157
-0.264,1.835,1.099,43.396,22.888,-86.121
-0.249,1.507,0.941,50.659,28.137,-110.168
-0.232,1.228,0.862,54.871,27.710,-127.502
-0.233,0.955,0.772,51.208,29.175,-139.160
-0.229,0.761,0.716,45.349,29.846,-147.888
-0.229,0.684,0.667,40.771,27.832,-152.771
-0.267,0.595,0.701,36.743,24.658,-160.461
-0.332,0.510,0.538,31.494,23.682,-173.218
-0.373,0.362,0.590,28.931,12.695,-186.768
-0.428,0.118,1.048,26.855,-2.502,-199.402
-0.441,-0.054,0.999,22.339,8.240,-204.285
-0.443,-0.358,0.820,20.691,26.062,-211.975
-0.421,-0.681,0.854,20.325,22.034,-216.003
-0.347,-0.842,0.875,15.747,20.264,-207.642
-0.322,-1.014,0.704,9.399,25.330,-196.472
-0.283,-1.217,0.618,5.615,21.301,-184.143
-0.204,-1.311,0.675,7.446,9.338,-163.757
-0.142,-1.344,0.723,14.038,0.916,-140.930
-0.093,-1.390,0.718,23.193,-1.831,-121.765
-0.105,-1.464,0.736,31.982,-5.127,-104.919
-0.126,-1.538,0.747,39.856,-9.094,-88.501
-0.148,-1.585,0.778,46.143,-12.207,-71.838
-0.171,-1.680,0.792,51.270,-14.221,-56.824
-0.177,-1.797,0.883,54.504,-16.968,-42.664
-0.171,-1.873,0.964,54.871,-17.334,-25.879
-0.172,-1.970,0.965,48.645,-12.939,-9.094
-0.169,-2.036,0.931,35.645,-7.935,7.446
-0.165,-2.057,0.905,18.311,-4.761,26.855
-0.176,-2.020,0.907,-3.052,-2.563,47.546
-0.177,-1.947,0.887,-24.475,0.977,69.641
-0.215,-1.840,0.816,-44.861,6.897,91.370
-0.183,-1.656,0.564,-60.791,12.512,106.934
-0.258,-1.801,0.617,-73.792,4.028,113.647
-0.315,-1.606,0.603,-87.097,2.075,140.564
-0.385,-1.484,0.500,-90.759,6.531,165.039
-0.472,-1.381,0.448,-84.656,5.493,182.861
-0.594,-1.166,0.492,-67.261,0.244,205.383
-0.653,-0.882,0.585,-40.405,-6.042,228.210
-0.732,-0.506,0.575,-8.301,-9.155,249.634
-0.792,-0.062,0.528,18.616,-14.954,265.747
-0.770,0.423,0.500,32.959,-26.794,271.912
-0.772,0.959,0.712,27.466,-45.898,266.479
-0.771,1.432,1.073,11.475,-64.148,251.099
-0.686,1.862,1.453,-9.705,-70.618,226.990
-0.615,2.110,1.584,-32.227,-60.486,192.322
-0.588,2.093,1.632,-56.396,-46.387,149.292
-0.536,2.257,1.822,-77.698,-36.316,120.117
-0.500,2.456,1.888,-89.844,-20.386,97.839
-0.452,2.588,1.815,-91.003,-2.380,69.641
-0.393,2.689,1.687,-84.534,11.902,41.077
-0.357,2.486,1.398,-72.510,25.024,8.728
-0.288,2.440,1.214,-52.673,28.687,-16.113
-0.232,2.350,1.112,-26.489,24.963,-39.978
-0.217,2.107,1.052,0.183,21.912,-67.871
-0.257,1.851,0.930,24.109,20.691,-90.454
-0.203,1.573,0.921,45.166,18.494,-108.032
-0.217,1.415,0.749,65.796,19.043,-124.390
-0.186,1.004,0.762,81.055,15.076,-145.508
-0.203,0.799,0.826,84.412,13.977,-152.222
-0.196,0.749,0.848,84.534,21.362,-150.146
-0.212,0.675,0.584,80.505,37.537,-155.701
-0.284,0.543,0.502,69.641,38.147,-168.945
-0.367,0.366,0.579,59.448,28.076,-184.570
-0.463,0.144,0.714,52.917,19.470,-197.510
-0.519,-0.114,0.707,46.387,18.860,-205.750
-0.505,-0.403,0.779,38.025,16.113,-211.426
-0.468,-0.728,0.982,24.414,9.277,-214.050
-0.414,-0.950,1.140,8.728,10.071,-208.984
-0.386,-1.068,1.096,-4.456,19.775,-196.533
-0.303,-1.145,1.033,-12.085,27.588,-183.228
-0.262,-1.263,0.989,-15.991,29.236,-170.959
-0.251,-1.445,0.860,-15.259,33.752,-159.485
-0.244,-1.561,0.760,-7.751,32.715,-143.372
-0.211,-1.625,0.761,3.845,25.879,-125.122
-0.198,-1.807,0.784,13.123,21.057,-110.657
-0.177,-2.002,0.743,20.264,20.508,-95.398
-0.155,-2.182,0.629,22.888,21.423,-74.829
-0.116,-2.372,0.576,20.813,17.578,-50.964
-0.072,-2.460,0.619,16.663,9.460,-21.973
-0.043,-2.463,0.632,9.216,4.578,10.071
-0.041,-2.370,0.583,-2.625,3.052,43.640
-0.038,-2.210,0.556,-17.334,0.793,77.026
-0.096,-2.091,0.531,-33.142,-1.099,106.750
-0.160,-1.684,0.403,-41.443,-0.671,131.775
-0.221,-1.754,0.370,-38.757,-9.583,140.198
-0.318,-1.577,0.572,-43.274,-25.940,164.978

-0.611,1.645,1.564,-62.866,-64.941,200.562
-0.586,2.073,1.592,-70.068,-52.795,180.359
-0.555,2.341,1.621,-74.036,-41.321,145.996
-0.492,2.662,1.770,-69.153,-31.494,116.394
-0.411,2.829,1.751,-54.138,-16.296,82.275
-0.329,2.699,1.662,-33.936,-2.136,39.429
-0.279,2.352,1.506,-19.653,9.521,-1.709
-0.233,1.984,1.454,-8.301,15.747,-31.433
-0.200,1.876,1.414,2.136,18.799,-43.884
-0.235,1.870,1.249,9.216,26.550,-51.575
-0.180,1.781,1.057,14.893,30.945,-65.552
-0.219,1.624,0.889,19.104,27.161,-81.543
-0.238,1.520,0.879,27.039,17.822,-97.717
-0.249,1.211,0.840,32.898,15.259,-124.084
-0.239,0.918,0.890,37.048,14.893,-143.188
-0.262,0.850,0.752,45.166,15.808,-155.457
-0.209,0.483,1.040,48.340,4.456,-173.950
-0.250,0.413,1.169,37.292,16.968,-176.147
-0.309,0.440,0.757,22.888,48.096,-176.880
-0.379,0.208,0.652,11.169,49.194,-195.740
-0.418,-0.094,0.789,3.662,35.522,-211.426
-0.417,-0.327,0.847,-2.808,33.081,-214.539
-0.403,-0.636,0.804,-8.728,36.743,-214.661
-0.346,-0.956,0.833,-9.338,32.166,-209.290
-0.279,-1.210,0.845,-3.479,26.917,-194.153
-0.205,-1.314,0.767,7.019,25.940,-170.837
-0.165,-1.376,0.686,17.578,23.071,-146.729
-0.146,-1.509,0.698,28.320,14.587,-125.732
-0.132,-1.548,0.731,39.185,5.859,-103.394
-0.122,-1.594,0.728,49.988,0.305,-83.008
-0.117,-1.766,0.745,57.983,-3.174,-69.458
-0.116,-1.922,0.756,59.570,-5.432,-54.199
-0.102,-2.029,0.784,54.199,-5.859,-35.339
-0.080,-2.094,0.779,43.335,-4.272,-15.015
-0.068,-2.158,0.730,27.588,-1.343,3.845
-0.082,-2.214,0.704,7.507,0.244,24.109
-0.077,-2.221,0.688,-12.024,0.610,47.729
-0.079,-2.128,0.600,-30.090,2.930,76.294
-0.108,-1.912,0.433,-44.800,4.700,103.638
-0.077,-1.806,0.377,-47.729,-3.418,120.483
-0.210,-1.800,0.499,-57.434,-16.235,136.902
-0.322,-1.518,0.481,-63.416,-15.442,168.091
-0.397,-1.103,0.478,-58.350,-16.724,195.557
-0.475,-0.660,0.612,-49.744,-22.278,209.351
-0.520,-0.313,0.731,-33.875,-24.109,210.388
-0.533,-0.157,0.744,-15.747,-19.348,202.454
-0.521,-0.015,0.743,-1.221,-17.273,197.021
-0.495,0.116,0.768,5.554,-19.836,192.749
-0.515,0.169,0.848,0.061,-23.743,185.730
-0.533,0.244,0.863,-14.954,-26.733,181.641
-0.520,0.548,0.872,-34.180,-28.198,187.500
-0.512,0.850,0.868,-55.115,-31.067,189.148
-0.590,1.036,0.954,-67.627,-37.537,178.772
-0.609,1.476,1.232,-60.669,-49.927,175.415
-0.581,2.073,1.501,-46.814,-53.894,171.692
-0.545,2.543,1.524,-30.884,-41.565,152.344
-0.487,2.716,1.537,-16.724,-29.541,114.441
-0.408,2.704,1.667,-7.751,-24.963,74.951
-0.359,2.568,1.652,-1.953,-13.184,37.903
-0.312,2.509,1.597,2.869,-1.465,9.460
-0.277,2.498,1.541,7.202,5.554,-13.672
-0.257,2.406,1.436,10.681,11.841,-40.283
-0.237,2.193,1.352,16.296,15.808,-69.763
-0.248,1.925,1.345,24.231,17.212,-96.924
-0.269,1.578,1.250,32.043,23.499,-120.178
-0.274,1.200,1.079,41.199,31.555,-138.550
-0.255,0.924,1.037,48.767,34.119,-147.095
-0.284,1.106,0.732,57.922,38.879,-149.719
-0.316,0.732,0.864,66.040,28.809,-173.767
-0.368,0.607,0.821,62.012,28.137,-184.326
-0.403,0.533,0.610,62.561,40.710,-186.157
-0.426,0.229,0.566,63.538,37.903,-199.951
-0.441,-0.105,0.541,59.631,31.128,-210.205
-0.442,-0.428,0.600,57.434,21.179,-213.928
-0.430,-0.633,0.765,55.115,10.864,-208.862
-0.391,-0.856,0.866,49.866,10.925,-200.806
-0.359,-1.060,0.882,42.847,15.869,-191.772
-0.318,-1.208,0.862,36.377,21.118,-178.101
-0.284,-1.290,0.808,30.762,23.987,-164.062
-0.255,-1.413,0.784,22.949,24.719,-152.466
-0.240,-1.492,0.752,16.174,25.879,-139.587
-0.222,-1.600,0.674,12.878,28.198,-126.160
-0.196,-1.743,0.620,11.475,26.917,-114.258
-0.167,-1.922,0.553,12.085,23.743,-100.525
-0.132,-2.051,0.514,12.390,19.653,-82.458
-0.111,-2.142,0.493,12.756,13.855,-60.364
-0.088,-2.264,0.473,13.245,7.568,-37.659
-0.084,-2.390,0.491,8.850,0.549,-12.207
-0.088,-2.432,0.538,2.258,-6.897,17.151
-0.095,-2.354,0.567,-8.301,-12.146,51.514
-0.117,-2.278,0.576,-24.231,-14.404,84.656
-0.102,-2.036,0.683,-42.847,-14.893,114.563
-0.251,-1.954,0.331,-55.420,-11.719,131.042
-0.347,-2.090,0.696,-68.298,-34.546,146.240
-0.441,-1.687,0.912,-80.505,-40.466,191.956
-0.573,-1.262,0.946,-84.961,-26.245,227.600
-0.709,-0.892,1.114,-76.050,-19.592,245.911
-0.801,-0.461,1.362,-54.443,-13.855,260.376
-0.784,0.109,1.420,-22.095,1.465,275.330
-0.723,0.587,1.176,7.690,24.658,275.208
-0.684,0.754,0.914,22.766,38.208,253.601
-0.630,0.886,0.765,25.696,34.485,228.760
-0.562,1.119,0.724,18.005,23.804,208.862
-0.496,1.173,0.588,-1.160,14.160,183.960
-0.427,1.333,0.751,-25.513,-1.160,160.339
-0.380,1.496,0.861,-51.819,-10.925,137.024
-0.381,1.565,1.153,-75.195,-21.545,110.840
-0.351,1.716,1.462,-85.693,-25.757,92.590
-0.349,1.991,1.486,-77.759,-13.977,82.458
-0.294,2.215,1.427,-59.753,-3.052,65.796
-0.215,2.446,1.432,-39.063,-0.549,45.959
-0.159,2.372,1.339,-17.578,5.798,14.771
-0.129,2.230,1.234,3.723,10.132,-15.869
-0.098,2.165,1.060,23.437,13.123,-36.743
-0.057,1.997,1.002,37.231,10.498,-60.181
-0.095,1.766,0.979,45.593,5.493,-84.534
-0.098,1.526,1.050,56.213,1.404,-103.027
-0.073,1.363,0.976,67.505,4.700,-115.479
-0.073,1.219,0.728,70.862,13.489,-126.404

-0.239,-1.862,0.801,5.798,-5.920,-101.074
-0.235,-2.087,0.805,12.634,-5.371,-82.458
-0.240,-2.201,0.875,20.386,-8.911,-57.373
-0.236,-2.323,0.963,23.987,-10.559,-31.494
-0.261,-2.416,0.952,21.667,-7.080,-4.639
-0.286,-2.436,0.922,18.127,-5.005,24.536
-0.310,-2.402,0.968,13.123,-8.606,56.030
-0.264,-2.234,1.080,5.005,-11.780,90.271
-0.269,-1.877,1.110,-8.545,-2.136,119.446
-0.365,-1.992,0.733,-19.836,12.573,124.390
-0.385,-1.912,1.046,-32.959,-6.714,147.644
-0.484,-1.522,1.059,-48.950,0.671,188.171
-0.557,-1.290,0.859,-59.082,18.616,211.914
-0.626,-1.186,0.657,-63.293,27.954,226.440
-0.702,-0.996,0.614,-59.753,22.827,243.958
-0.793,-0.715,0.646,-52.490,13.428,264.526
-0.882,-0.294,0.683,-44.189,6.592,283.020
-0.955,0.212,0.699,-35.217,0.671,294.617
-0.950,0.763,0.799,-24.719,-8.484,295.837
-0.851,1.337,0.920,-17.883,-15.503,284.180
-0.792,1.672,0.840,-19.836,-14.282,255.859
-0.744,1.995,0.929,-24.414,-16.418,222.290
-0.516,2.271,0.943,-25.330,-17.944,184.204
-0.433,2.220,0.952,-26.794,-23.804,140.686
-0.276,2.118,1.182,-32.532,-38.086,104.065
-0.209,2.220,1.366,-42.908,-38.269,80.383
-0.217,2.085,1.205,-53.772,-18.555,50.720
-0.205,2.178,1.273,-55.176,-17.517,33.813
-0.188,2.405,1.409,-49.622,-18.860,19.836
-0.181,2.506,1.366,-36.194,-9.766,-4.395
-0.156,2.495,1.229,-19.165,0.732,-33.325
-0.151,2.317,1.092,-2.625,6.226,-64.697
-0.194,2.179,0.918,15.442,7.141,-96.680
-0.269,1.630,0.918,37.598,-1.160,-136.108
-0.184,1.276,1.016,56.274,-4.395,-154.846
-0.190,1.195,0.830,68.359,8.850,-152.222
-0.245,0.956,0.674,76.111,17.151,-161.926
-0.277,0.630,0.735,85.754,10.803,-175.415
-0.241,0.445,0.738,93.811,8.850,-178.345
-0.283,0.288,0.653,91.614,12.939,-177.917
-0.391,0.047,0.647,83.252,12.695,-182.861
-0.419,-0.076,0.767,81.177,5.920,-184.021
-0.346,-0.051,0.956,80.688,0.000,-180.176
-0.408,-0.115,1.100,75.745,2.563,-184.753
-0.405,-0.273,1.087,69.885,14.343,-196.594
-0.420,-0.475,1.104,62.561,24.048,-206.909
-0.466,-0.724,1.100,50.842,31.128,-213.989
-0.553,-1.017,1.057,38.269,37.781,-214.722
-0.487,-1.325,0.991,28.259,42.175,-207.397
-0.436,-1.504,1.071,20.874,38.269,-192.261
-0.482,-1.727,1.065,9.827,40.405,-175.415
-0.337,-2.061,0.952,-1.099,48.157,-159.973
-0.248,-2.289,0.943,-9.277,48.279,-136.475
-0.183,-2.423,0.781,-18.799,51.086,-107.117
-0.149,-2.480,0.592,-22.827,52.307,-74.890
-0.135,-2.507,0.412,-23.804,46.936,-42.664
-0.123,-2.451,0.312,-24.719,35.034,-10.132
-0.096,-2.363,0.308,-26.306,18.494,21.301
-0.120,-2.191,0.391,-26.489,3.723,50.964
-0.226,-1.938,0.537,-29.114,-4.211,73.853
-0.276,-1.959,0.533,-30.762,-0.061,85.999
-0.323,-1.861,0.120,-21.423,1.099,105.835
-0.294,-1.728,0.540,-16.907,-38.025,130.188
-0.324,-1.517,0.779,-25.208,-45.959,158.691
-0.379,-1.368,0.656,-32.227,-30.884,177.307
-0.458,-1.126,0.566,-35.950,-24.414,194.763
-0.498,-0.883,0.719,-34.790,-32.471,208.923
-0.511,-0.676,0.867,-32.104,-35.400,218.079
-0.563,-0.528,0.825,-30.029,-26.245,224.365
-0.637,-0.465,0.810,-24.597,-20.691,228.699
-0.706,-0.348,0.856,-13.428,-22.888,235.107
-0.736,0.003,0.948,-1.099,-27.283,246.765
-0.768,0.385,1.085,3.906,-31.189,252.808
-0.819,0.739,1.119,0.549,-28.503,249.451
-0.799,1.281,1.066,-9.033,-25.269,245.056
-0.746,1.821,1.029,-30.029,-22.583,228.027
-0.703,2.353,1.211,-57.678,-30.396,199.524
-0.677,2.628,1.478,-75.623,-42.908,166.138
-0.490,3.210,1.982,-74.219,-47.913,139.587
-0.388,3.153,1.984,-66.650,-20.935,87.830
-0.345,2.783,1.581,-57.251,17.029,30.273
-0.271,2.538,1.419,-45.471,26.978,-2.136
-0.247,2.386,1.339,-33.752,27.527,-23.437
-0.180,2.329,1.214,-17.639,30.945,-39.612
-0.147,2.293,1.086,1.709,32.898,-55.298
-0.123,2.069,0.990,24.170,32.593,-80.688
-0.171,1.742,0.970,42.786,30.945,-108.398
-0.196,1.436,0.841,58.655,35.095,-130.676
-0.217,1.113,0.634,69.946,41.687,-147.583
-0.254,0.832,0.490,74.097,41.321,-161.194
-0.244,0.672,0.456,75.378,35.645,-170.044
-0.263,0.562,0.336,79.956,29.663,-178.223
-0.299,0.279,0.634,80.933,12.695,-191.040
-0.314,0.148,0.743,74.524,15.198,-191.406
-0.352,0.006,0.448,61.646,34.546,-191.467
-0.390,-0.241,0.443,46.326,26.794,-200.684
-0.370,-0.493,0.677,33.997,6.836,-207.520
-0.320,-0.601,0.892,24.109,-2.808,-203.064
-0.286,-0.745,0.904,11.963,1.282,-199.036
-0.275,-0.952,0.906,1.221,5.310,-196.533
-0.265,-1.163,0.978,-6.592,4.700,-190.735
-0.234,-1.316,0.956,-11.169,6.836,-179.687
-0.207,-1.497,0.903,-12.634,9.888,-168.030
-0.192,-1.678,0.845,-10.681,11.658,-155.640
-0.207,-1.824,0.782,-4.822,11.719,-138.611
-0.169,-1.980,0.731,4.578,9.277,-119.690
-0.119,-2.062,0.759,16.907,2.502,-97.717
-0.102,-2.154,0.786,26.733,-1.160,-76.904
-0.124,-2.288,0.823,29.968,-2.563,-56.946
-0.123,-2.370,0.814,29.053,-2.625,-32.043
-0.143,-2.332,0.805,21.240,-2.686,-3.662
-0.182,-2.277,0.767,5.676,-2.441,23.315
-0.209,-2.225,0.805,-12.207,-4.211,48.584
-0.219,-2.127,0.841,-28.503,-5.371,76.111
-0.255,-1.885,1.039,-44.800,-1.160,102.356
-0.295,-1.872,0.431,-56.946,15.930,113.770
-0.291,-1.933,0.661,-59.021,-6.165,128.601
-0.408,-1.635,0.868,-67.810,-19.836,165.039
-0.489,-1.430,0.770,-69.763,-6.958,193.787

-0.684,-1.136,0.550,-54.749,-0.854,236.206
-0.732,-0.736,0.620,-38.086,-10.559,262.634
-0.776,-0.292,0.737,-23.621,-18.066,280.457
-0.840,0.176,0.898,-14.771,-21.545,285.339
-0.868,0.749,1.076,-8.057,-22.705,282.104
-0.844,1.278,1.174,-3.662,-20.935,268.677
-0.740,1.667,1.164,-3.906,-14.648,243.042
-0.663,1.842,1.067,-10.986,-8.301,207.520
-0.557,1.951,1.163,-25.635,-9.827,173.096
-0.471,2.045,1.152,-42.542,-10.193,143.188
-0.455,1.987,1.191,-64.209,-11.963,110.657
-0.396,2.071,1.372,-79.529,-19.897,91.736
-0.311,2.428,1.725,-87.708,-24.597,80.933
-0.286,2.340,1.593,-91.370,-1.892,52.246
-0.294,2.209,1.207,-84.961,24.231,25.330
-0.211,2.359,1.089,-65.979,20.996,13.977
-0.167,2.334,0.976,-44.495,16.418,-6.714
-0.140,2.234,0.854,-20.020,14.343,-34.729
-0.106,2.218,0.833,10.071,7.690,-57.861
-0.141,1.994,0.906,37.048,1.648,-85.999
-0.160,1.529,0.901,60.486,4.028,-118.286
-0.198,1.331,0.717,86.914,6.653,-137.085
-0.120,0.979,0.965,108.398,-6.958,-153.381
-0.084,0.718,1.042,105.652,3.540,-162.109
-0.118,0.640,0.730,90.393,33.691,-160.034
-0.176,0.505,0.456,74.585,44.312,-166.260
-0.240,0.298,0.493,64.270,29.663,-177.307
-0.262,0.123,0.640,63.843,12.817,-182.922
-0.297,-0.004,0.685,64.148,9.766,-184.631
-0.338,-0.191,0.589,62.317,12.878,-188.293
-0.356,-0.474,0.615,61.768,6.104,-195.496
-0.334,-0.697,0.777,62.561,-5.676,-196.594
-0.269,-0.857,0.954,62.622,-10.620,-191.223
-0.233,-1.026,1.013,56.030,-4.761,-185.181
-0.234,-1.170,1.003,47.607,5.981,-177.429
-0.248,-1.273,0.926,38.940,16.907,-168.030
-0.277,-1.341,0.867,29.724,24.414,-158.997
-0.303,-1.442,0.783,18.860,29.541,-152.893
-0.282,-1.638,0.732,5.432,31.311,-148.071
-0.280,-1.868,0.765,-12.390,28.625,-139.282
-0.235,-2.112,0.766,-25.146,27.771,-123.962
-0.179,-2.349,0.714,-36.865,27.771,-105.591
-0.171,-2.541,0.679,-45.471,24.475,-78.003
-0.161,-2.776,0.659,-50.720,18.311,-44.800
-0.137,-2.849,0.575,-50.537,12.756,-2.136
-0.136,-2.708,0.511,-46.265,5.371,48.157
-0.162,-2.483,0.547,-40.344,-5.066,95.703
-0.244,-2.179,0.758,-40.588,-9.338,132.690
-0.284,-1.979,0.331,-40.710,4.761,154.297
-0.460,-1.907,0.320,-32.410,-10.437,173.218
-0.484,-1.705,0.712,-36.499,-41.321,204.224
-0.548,-1.332,0.737,-42.297,-34.912,239.685
-0.611,-0.982,0.523,-46.814,-18.250,258.057
-0.693,-0.584,0.590,-46.875,-19.287,266.296
-0.725,-0.087,0.927,-36.804,-30.029,269.409
-0.715,0.467,1.112,-18.555,-27.771,267.944
-0.653,0.857,1.083,-3.540,-14.832,254.822
-0.618,0.944,1.090,1.709,-8.118,228.394
-0.621,0.942,1.172,2.136,-10.071,203.918
-0.590,1.152,1.217,-0.244,-11.414,194.336
-0.557,1.381,1.227,-4.272,-13.245,186.035
-0.492,1.677,1.345,-15.808,-17.212,173.218
-0.491,1.830,1.303,-30.701,-14.160,151.489
-0.486,1.880,1.343,-43.213,-16.479,125.977
-0.513,2.089,1.486,-50.171,-28.076,114.136
-0.415,2.644,1.952,-48.340,-36.926,105.347
-0.405,2.609,1.825,-39.124,-10.559,67.200
-0.417,2.509,1.497,-25.818,19.226,26.428
-0.347,2.462,1.487,-7.751,19.470,0.854
-0.324,2.263,1.400,5.371,24.170,-29.663
-0.322,1.935,1.240,14.709,34.973,-59.631
-0.234,1.747,1.130,24.719,40.100,-78.186
-0.197,1.583,0.972,30.212,45.166,-91.919
-0.163,1.387,0.745,32.471,51.941,-110.596
-0.152,1.148,0.379,41.992,48.889,-135.925
-0.086,0.750,0.664,46.265,22.278,-160.706
-0.082,0.579,0.762,37.292,20.203,-164.062
-0.096,0.500,0.494,26.550,38.025,-165.161
-0.132,0.396,0.419,23.315,34.180,-171.997
-0.172,0.229,0.617,23.071,15.381,-181.152
-0.228,0.111,0.717,22.034,9.094,-183.960
-0.313,0.026,0.624,19.165,14.648,-182.312
-0.285,-0.095,0.581,17.029,13.184,-183.655
-0.328,-0.238,0.689,18.921,1.831,-186.890
-0.311,-0.457,0.799,22.888,-3.784,-190.674
-0.275,-0.603,0.875,30.273,-4.395,-187.744
-0.227,-0.735,0.890,36.316,-1.038,-182.373
-0.154,-0.880,0.833,40.833,3.906,-175.903
-0.078,-1.015,0.780,39.856,6.531,-168.274
-0.069,-1.113,0.739,31.311,8.789,-161.682
-0.100,-1.234,0.715,21.729,8.545,-156.738
-0.120,-1.363,0.698,14.709,7.324,-150.818
-0.132,-1.429,0.645,11.047,6.165,-140.747
-0.194,-1.564,0.639,11.719,1.953,-131.836
-0.242,-1.970,0.629,9.338,-2.014,-126.221
-0.253,-2.314,0.672,8.301,-8.789,-109.253
-0.208,-2.535,0.756,9.827,-17.334,-77.148
-0.198,-2.745,0.868,7.507,-23.865,-40.833
-0.196,-2.860,0.957,2.563,-25.940,-0.977
-0.228,-2.806,0.954,-7.935,-23.132,43.823
-0.296,-2.676,0.900,-26.428,-17.456,88.928
-0.360,-2.476,0.937,-49.133,-13.000,129.395
-0.312,-1.983,0.785,-62.622,-5.859,160.400
-0.484,-2.023,0.836,-68.787,-7.080,170.654
-0.553,-1.787,0.927,-78.247,-8.057,201.294
-0.565,-1.469,0.795,-73.669,3.723,235.718
-0.628,-1.062,0.732,-62.927,9.644,258.484
-0.743,-0.569,0.809,-47.424,8.179,274.231
-0.799,-0.036,0.926,-24.109,3.723,284.241
-0.745,0.483,0.891,0.488,4.700,288.025
-0.742,0.883,0.817,13.672,4.639,275.879
-0.736,1.104,0.748,13.428,-2.808,251.221
-0.679,1.380,0.699,6.531,-13.733,228.638
-0.595,1.666,0.740,-7.751,-27.405,205.566
-0.545,1.738,0.996,-27.771,-44.922,176.636
-0.398,1.950,1.457,-42.175,-58.594,152.771
-0.344,1.932,1.380,-53.650,-40.833,122.925
-0.342,1.857,1.310,-58.350,-24.780,91.309
-0.335,1.981,1.480,-54.871,-24.353,79.590

-0.334,2.363,1.364,-30.884,1.709,46.814
-0.275,2.458,1.398,-15.198,3.967,22.705
-0.233,2.441,1.328,-2.014,9.521,-5.615
-0.270,2.238,1.050,9.705,21.667,-38.574
-0.205,2.051,0.867,18.799,23.193,-63.110
-0.174,1.998,0.929,27.039,13.550,-80.994
-0.207,1.813,0.987,36.133,7.996,-106.262
-0.184,1.455,0.924,49.988,8.606,-136.230
-0.153,1.045,0.895,62.866,12.939,-157.898
-0.163,0.744,0.906,60.791,18.555,-166.260
-0.165,0.577,0.696,52.490,30.701,-167.664
-0.201,0.453,0.546,50.659,34.119,-172.485
-0.284,0.246,0.640,53.589,20.996,-180.725
-0.323,0.083,0.886,54.749,10.071,-183.594
-0.345,-0.009,0.823,57.617,16.052,-182.068
-0.331,-0.101,0.794,60.486,17.090,-184.326
-0.427,-0.289,0.810,57.312,12.878,-190.063
-0.447,-0.587,0.835,48.462,10.437,-195.007
-0.378,-0.729,0.988,42.725,4.822,-190.002
-0.346,-0.819,1.130,35.400,4.150,-181.763
-0.322,-0.977,1.179,25.330,11.963,-177.917
-0.338,-1.150,1.079,15.381,24.536,-172.302
-0.257,-1.345,0.971,3.967,32.532,-163.818
-0.250,-1.431,0.842,-5.554,35.339,-151.062
-0.203,-1.542,0.705,-10.803,35.706,-140.747
-0.213,-1.779,0.679,-14.587,29.541,-133.789
-0.197,-2.084,0.673,-15.320,23.560,-123.962
-0.162,-2.322,0.634,-11.169,18.799,-104.187
-0.144,-2.495,0.609,-8.362,13.306,-76.416
-0.141,-2.613,0.640,-6.409,5.615,-44.250
-0.122,-2.704,0.720,-5.859,-1.099,-9.094
-0.158,-2.608,0.799,-7.202,-5.127,30.212
-0.188,-2.390,0.769,-12.085,-2.869,72.266
-0.249,-2.090,0.829,-20.386,0.732,108.154
-0.263,-1.776,0.521,-26.733,11.047,131.592
-0.338,-1.718,0.500,-23.682,3.235,143.311
-0.346,-1.650,0.758,-28.625,-16.541,162.903
-0.382,-1.367,0.694,-34.241,-8.972,194.031
-0.428,-1.117,0.530,-33.386,-1.648,215.027
-0.499,-0.944,0.605,-31.006,-7.874,225.586
-0.555,-0.660,0.791,-25.146,-16.846,237.488
-0.611,-0.361,0.807,-13.916,-15.747,246.399
-0.641,-0.053,0.792,1.465,-14.038,249.695
-0.714,0.277,0.931,17.029,-20.752,248.962
-0.744,0.750,1.120,31.006,-28.809,246.765
-0.736,1.302,1.309,42.725,-33.630,239.563
-0.613,1.616,1.405,48.157,-30.701,216.492
-0.512,1.592,1.440,40.466,-23.254,180.176
-0.419,1.568,1.354,19.653,-13.794,147.888
-0.375,1.452,1.211,-8.972,-5.493,119.263
-0.323,1.450,1.261,-38.208,-10.864,103.210
-0.290,1.798,1.445,-61.829,-19.348,101.196
-0.260,2.046,1.543,-76.599,-15.869,89.050
-0.267,2.204,1.466,-81.604,-3.479,68.787
-0.197,2.587,1.596,-72.693,-5.066,52.673
-0.133,2.688,1.665,-55.054,-0.610,19.409
-0.091,2.426,1.443,-32.593,20.386,-26.611
-0.078,2.090,1.116,-9.155,38.452,-63.904
-0.053,1.817,0.952,11.230,40.161,-88.867
-0.066,1.584,0.833,26.489,36.377,-107.544
-0.164,1.283,0.689,35.706,34.241,-124.512
-0.084,1.051,0.646,44.128,27.222,-135.620
-0.077,0.933,0.697,50.476,17.456,-139.709
-0.069,0.744,0.701,52.368,15.320,-148.315
-0.089,0.514,0.612,51.086,17.395,-157.166
-0.123,0.309,0.526,48.279,17.822,-163.025
-0.164,0.169,0.384,43.457,13.611,-165.588
-0.161,0.140,0.510,42.175,-1.099,-166.748
-0.285,-0.138,1.092,43.701,-13.428,-172.058
-0.312,-0.097,0.616,42.908,11.902,-170.410
-0.345,-0.432,0.442,53.589,12.817,-178.162
-0.299,-0.760,1.024,55.603,-22.095,-186.218
-0.262,-0.811,1.178,50.110,-14.526,-171.509
-0.242,-0.924,0.964,41.626,8.911,-160.828
-0.275,-1.045,0.923,29.480,13.794,-154.419
-0.220,-1.198,1.006,12.695,11.963,-147.034
-0.219,-1.270,1.055,-3.357,12.634,-138.977
-0.214,-1.347,0.997,-20.264,19.531,-132.019
-0.242,-1.483,0.955,-34.607,23.865,-127.991
-0.264,-1.772,0.936,-42.236,24.780,-125.366
-0.175,-1.986,0.859,-39.978,25.085,-113.403
-0.108,-2.168,0.767,-34.729,25.452,-93.079
-0.098,-2.420,0.703,-35.217,23.804,-74.768
-0.082,-2.711,0.617,-30.273,20.386,-47.974
-0.057,-2.908,0.545,-23.621,12.512,-9.766
-0.066,-2.827,0.481,-15.137,3.235,41.260
-0.095,-2.581,0.469,-9.766,-5.676,93.262
-0.079,-2.338,0.478,-11.536,-13.367,134.583
-0.300,-1.887,0.582,-18.433,-15.076,168.396
-0.371,-1.829,0.161,-20.996,-10.193,179.993
-0.454,-1.654,0.498,-24.170,-38.147,202.576
-0.537,-1.290,0.607,-34.973,-42.175,235.596
-0.608,-1.001,0.569,-41.992,-33.203,250.549
-0.709,-0.570,0.620,-42.908,-29.358,259.216
-0.718,-0.123,0.867,-32.104,-33.264,261.108
-0.657,0.158,1.008,-13.428,-29.602,254.272
-0.663,0.283,0.903,3.906,-15.320,242.737
-0.740,0.403,0.828,17.090,-9.766,233.154
-0.785,0.745,0.922,25.146,-19.836,229.492
-0.710,1.290,0.998,32.166,-31.982,227.417
-0.670,1.752,0.980,30.273,-39.185,211.914
-0.577,2.078,1.225,18.433,-52.063,183.777
-0.507,2.145,1.477,2.258,-60.730,145.752
-0.467,1.988,1.641,-16.052,-57.800,106.812
-0.440,2.086,1.741,-33.691,-53.772,86.914
-0.419,2.300,2.062,-44.434,-55.298,73.975
-0.378,2.503,2.357,-52.063,-41.809,51.697
-0.383,2.538,2.036,-54.260,2.441,20.996
-0.312,2.615,1.805,-44.189,24.414,-6.287
-0.286,2.515,1.703,-28.198,31.494,-42.053
-0.270,2.192,1.529,-11.353,42.969,-83.130
-0.272,1.827,1.248,6.470,55.847,-111.206
-0.302,1.448,0.998,19.897,61.279,-131.531
-0.232,1.170,0.858,32.104,57.190,-145.508
-0.195,1.006,0.822,37.415,48.889,-153.198
-0.206,0.770,0.740,37.292,47.424,-163.330
-0.203,0.552,0.594,36.133,49.194,-171.387
-0.185,0.385,0.513,35.522,48.218,-175.903
-0.233,0.292,0.120,38.452,44.800,-182.556

-0.134,-1.647,0.771,-7.324,20.813,-128.479
-0.090,-1.679,0.659,-10.376,18.921,-108.765
-0.041,-1.714,0.649,-8.057,12.512,-90.759
-0.047,-1.781,0.625,-8.606,6.714,-75.806
-0.061,-1.859,0.564,-7.385,3.906,-59.570
-0.071,-1.931,0.539,-6.348,-1.099,-42.236
-0.076,-1.975,0.508,-2.197,-7.263,-23.010
-0.084,-2.017,0.586,1.160,-17.212,-4.333
-0.112,-2.085,0.672,1.343,-23.437,16.174
-0.156,-2.173,0.707,-3.845,-23.437,39.673
-0.190,-2.195,0.738,-12.390,-23.254,68.848
-0.218,-2.051,0.853,-24.536,-20.752,101.807
-0.306,-1.991,0.478,-35.095,-11.719,124.023
-0.359,-2.110,0.742,-44.800,-30.823,144.592
-0.462,-1.869,0.900,-60.181,-32.349,188.232
-0.546,-1.518,0.726,-66.162,-15.747,229.248
-0.594,-1.239,0.628,-66.895,-9.216,252.502
-0.661,-0.888,0.730,-60.486,-13.733,267.944
-0.744,-0.587,0.852,-55.725,-14.465,278.259
-0.826,-0.242,0.900,-44.128,-9.033,285.095
-0.928,0.176,0.992,-28.931,-6.531,290.771
-1.011,0.698,1.158,-12.695,-9.583,293.152
-1.031,1.433,1.218,3.174,-11.414,293.091
-0.867,2.123,1.152,14.160,-10.071,280.701
-0.659,2.703,1.037,12.085,-11.047,247.314
-0.552,2.795,0.905,-3.418,-14.465,187.683
-0.505,2.571,1.100,-21.484,-33.020,125.061
-0.389,2.499,1.496,-33.264,-53.223,83.862
-0.308,2.510,1.895,-39.063,-53.467,51.636
-0.349,2.336,1.844,-41.199,-24.048,18.311
-0.319,2.236,1.832,-38.269,-5.676,-4.883
-0.281,2.255,1.748,-30.945,8.362,-19.958
-0.258,2.185,1.461,-19.043,27.527,-39.917
-0.237,2.085,1.163,-3.418,38.513,-61.707
-0.227,2.014,0.942,12.390,40.161,-82.275
-0.264,1.962,0.578,31.128,36.560,-109.192
-0.320,1.437,0.717,44.495,15.015,-149.414
-0.256,1.137,0.718,49.927,7.751,-168.152
-0.234,0.940,0.740,52.979,11.230,-173.340
-0.228,0.671,0.669,50.903,19.775,-182.983
-0.235,0.451,0.592,44.250,23.743,-189.758
-0.306,0.316,0.504,40.833,21.973,-190.735
-0.303,0.120,0.604,37.842,13.123,-193.298
-0.345,0.038,0.714,38.025,3.296,-190.369
